#timestamp, p_RS_R_x [m], p_RS_R_y [m], p_RS_R_z [m], q_RS_w [], q_RS_x [], q_RS_y [], q_RS_z [], v_RS_R_x [m s^-1], v_RS_R_y [m s^-1], v_RS_R_z [m s^-1], b_w_RS_S_x [rad s^-1], b_w_RS_S_y [rad s^-1], b_w_RS_S_z [rad s^-1], b_a_RS_S_x [m s^-2], b_a_RS_S_y [m s^-2], b_a_RS_S_z [m s^-2]
1403637132888318976,4.631117,-1.786812,0.577113,0.606317,-0.156367,-0.776345,-0.072229,-0.000804,0.005763,-0.000551,-0.002571,0.021269,0.076861,-0.022996,0.125896,0.057076
1403637132893318912,4.631114,-1.786783,0.577110,0.606359,-0.156397,-0.776307,-0.072219,-0.000626,0.006035,-0.000500,-0.002571,0.021269,0.076861,-0.022996,0.125896,0.057076
1403637132898319104,4.631111,-1.786751,0.577107,0.606392,-0.156411,-0.776278,-0.072222,-0.000344,0.006641,-0.000735,-0.002571,0.021269,0.076861,-0.022996,0.125896,0.057076
1403637132903318784,4.631110,-1.786716,0.577103,0.606409,-0.156406,-0.776264,-0.072245,-0.000064,0.007347,-0.001071,-0.002571,0.021269,0.076861,-0.022996,0.125896,0.057076
1403637132908318976,4.631110,-1.786677,0.577097,0.606412,-0.156384,-0.776262,-0.072298,0.000152,0.008212,-0.001300,-0.002571,0.021269,0.076861,-0.022996,0.125896,0.057076
1403637132913319168,4.631111,-1.786634,0.577090,0.606396,-0.156342,-0.776275,-0.072379,0.000294,0.009043,-0.001626,-0.002571,0.021269,0.076861,-0.022996,0.125896,0.057076
1403637132918319104,4.631113,-1.786588,0.577082,0.606360,-0.156286,-0.776305,-0.072474,0.000227,0.009490,-0.001576,-0.002571,0.021269,0.076861,-0.022996,0.125896,0.057076
1403637132923319040,4.631113,-1.786540,0.577075,0.606325,-0.156227,-0.776335,-0.072575,-0.000192,0.009455,-0.001083,-0.002571,0.021269,0.076861,-0.022996,0.125896,0.057076
1403637132928318976,4.631110,-1.786495,0.577071,0.606303,-0.156169,-0.776355,-0.072672,-0.000956,0.008719,-0.000662,-0.002571,0.021269,0.076861,-0.022996,0.125896,0.057076
1403637132933319168,4.631103,-1.786455,0.577068,0.606296,-0.156126,-0.776361,-0.072757,-0.001961,0.007205,-0.000298,-0.002571,0.021269,0.076861,-0.022996,0.125896,0.057076
1403637132938318848,4.631090,-1.786424,0.577066,0.606298,-0.156100,-0.776359,-0.072810,-0.002959,0.005111,-0.000304,-0.002571,0.021269,0.076861,-0.022996,0.125896,0.057076
1403637132943319040,4.631074,-1.786404,0.577064,0.606306,-0.156098,-0.776353,-0.072817,-0.003780,0.002781,-0.000766,-0.002571,0.021269,0.076861,-0.022996,0.125896,0.057076
1403637132948318976,4.631053,-1.786396,0.577058,0.606315,-0.156137,-0.776341,-0.072788,-0.004272,0.000450,-0.001450,-0.002571,0.021269,0.076861,-0.022996,0.125896,0.057076
1403637132953319168,4.631032,-1.786399,0.577050,0.606323,-0.156218,-0.776324,-0.072726,-0.004417,-0.001643,-0.001819,-0.002571,0.021269,0.076861,-0.022996,0.125896,0.057076
1403637132958318848,4.631010,-1.786411,0.577041,0.606336,-0.156337,-0.776298,-0.072638,-0.004278,-0.003407,-0.001857,-0.002571,0.021269,0.076861,-0.022996,0.125896,0.057076
1403637132963319040,4.630989,-1.786433,0.577031,0.606350,-0.156490,-0.776267,-0.072522,-0.004041,-0.005055,-0.001869,-0.002571,0.021269,0.076861,-0.022996,0.125896,0.057076
1403637132968318976,4.630969,-1.786462,0.577021,0.606353,-0.156671,-0.776242,-0.072376,-0.004166,-0.006509,-0.002118,-0.002571,0.021269,0.076861,-0.022996,0.125896,0.057076
1403637132973319168,4.630946,-1.786497,0.577010,0.606337,-0.156856,-0.776233,-0.072210,-0.004711,-0.007591,-0.002581,-0.002571,0.021269,0.076861,-0.022996,0.125896,0.057076
1403637132978318848,4.630922,-1.786535,0.576996,0.606307,-0.157028,-0.776238,-0.072033,-0.005157,-0.007825,-0.002901,-0.002571,0.021269,0.076861,-0.022996,0.125896,0.057076
1403637132983319040,4.630895,-1.786572,0.576981,0.606263,-0.157182,-0.776257,-0.071863,-0.005375,-0.006912,-0.002866,-0.002571,0.021269,0.076861,-0.022996,0.125896,0.057076
1403637132988318976,4.630869,-1.786601,0.576965,0.606202,-0.157310,-0.776291,-0.071725,-0.005513,-0.005024,-0.002699,-0.002571,0.021269,0.076861,-0.022996,0.125896,0.057076
1403637132993318912,4.630841,-1.786621,0.576953,0.606129,-0.157407,-0.776337,-0.071633,-0.005527,-0.002818,-0.002101,-0.002571,0.021269,0.076861,-0.022996,0.125896,0.057076
1403637132998318848,4.630813,-1.786629,0.576944,0.606054,-0.157480,-0.776385,-0.071585,-0.005661,-0.000725,-0.001402,-0.002571,0.021269,0.076861,-0.022996,0.125896,0.057076
1403637133003319040,4.630784,-1.786629,0.576938,0.605989,-0.157533,-0.776427,-0.071570,-0.006024,0.001018,-0.000971,-0.002571,0.021269,0.076861,-0.022996,0.125896,0.057076
1403637133008318976,4.630753,-1.786621,0.576933,0.605933,-0.157574,-0.776462,-0.071569,-0.006469,0.002089,-0.001145,-0.002571,0.021269,0.076861,-0.022996,0.125896,0.057076
1403637133013318912,4.630719,-1.786610,0.576926,0.605882,-0.157607,-0.776496,-0.071559,-0.006918,0.002483,-0.001653,-0.002571,0.021269,0.076861,-0.022996,0.125896,0.057076
1403637133018318848,4.630684,-1.786597,0.576917,0.605844,-0.157632,-0.776522,-0.071544,-0.007050,0.002643,-0.001837,-0.002571,0.021269,0.076861,-0.022996,0.125896,0.057076
1403637133023319040,4.630650,-1.786583,0.576909,0.605831,-0.157650,-0.776529,-0.071536,-0.006529,0.002951,-0.001411,-0.002571,0.021269,0.076861,-0.022996,0.125896,0.057076
1403637133028318976,4.630620,-1.786567,0.576904,0.605840,-0.157665,-0.776518,-0.071545,-0.005383,0.003287,-0.000637,-0.002571,0.021269,0.076861,-0.022996,0.125896,0.057076
1403637133033318912,4.630597,-1.786550,0.576902,0.605864,-0.157682,-0.776493,-0.071576,-0.003925,0.003446,-0.000146,-0.002571,0.021269,0.076861,-0.022996,0.125896,0.057076
1403637133038319104,4.630583,-1.786531,0.576895,0.605892,-0.157696,-0.776465,-0.071624,-0.002350,0.003437,-0.000590,-0.002571,0.021269,0.076861,-0.022996,0.125896,0.057076
1403637133043319040,4.630575,-1.786515,0.576890,0.605907,-0.157702,-0.776447,-0.071677,-0.000948,0.002817,-0.001513,-0.002571,0.021269,0.076861,-0.022996,0.125896,0.057076
1403637133048318976,4.630573,-1.786504,0.576880,0.605899,-0.157703,-0.776448,-0.071724,0.000470,0.001637,-0.002511,-0.002571,0.021269,0.076861,-0.022996,0.125896,0.057076
1403637133053318912,4.630580,-1.786499,0.576868,0.605870,-0.157690,-0.776471,-0.071748,0.002040,0.000257,-0.002382,-0.002571,0.021269,0.076861,-0.022996,0.125896,0.057076
1403637133058319104,4.630594,-1.786501,0.576860,0.605838,-0.157647,-0.776505,-0.071751,0.003687,-0.000865,-0.000877,-0.002571,0.021269,0.076861,-0.022996,0.125896,0.057076
1403637133063319040,4.630617,-1.786506,0.576862,0.605821,-0.157567,-0.776534,-0.071754,0.005528,-0.001335,0.001731,-0.002571,0.021269,0.076861,-0.022996,0.125896,0.057076
1403637133068318976,4.630650,-1.786513,0.576880,0.605835,-0.157454,-0.776544,-0.071772,0.007802,-0.001193,0.005502,-0.002571,0.021269,0.076861,-0.022996,0.125896,0.057076
1403637133073318912,4.630696,-1.786518,0.576918,0.605897,-0.157323,-0.776518,-0.071821,0.010566,-0.000715,0.009771,-0.002571,0.021269,0.076861,-0.022996,0.125896,0.057076
1403637133078319104,4.630756,-1.786521,0.576976,0.606011,-0.157201,-0.776446,-0.071904,0.013471,-0.000501,0.013431,-0.002571,0.021269,0.076861,-0.022996,0.125896,0.057076
1403637133083319040,4.630830,-1.786525,0.577049,0.606169,-0.157103,-0.776334,-0.071992,0.016052,-0.001386,0.015982,-0.002571,0.021269,0.076861,-0.022996,0.125896,0.057076
1403637133088318976,4.630919,-1.786534,0.577124,0.606348,-0.157029,-0.776205,-0.072039,0.018158,-0.003579,0.016749,-0.002571,0.021269,0.076861,-0.022996,0.125896,0.057076
1403637133093318912,4.631013,-1.786561,0.577208,0.606532,-0.156979,-0.776075,-0.072005,0.019267,-0.007010,0.016784,-0.002571,0.021269,0.076861,-0.022996,0.125896,0.057076
1403637133098319104,4.631111,-1.786605,0.577290,0.606703,-0.156936,-0.775961,-0.071877,0.019981,-0.010501,0.016163,-0.002571,0.021269,0.076861,-0.022996,0.125896,0.057076
1403637133103319040,4.631213,-1.786663,0.577369,0.606855,-0.156896,-0.775870,-0.071669,0.020847,-0.012915,0.015376,-0.002571,0.021269,0.076861,-0.022996,0.125896,0.057076
1403637133108318976,4.631319,-1.786730,0.577445,0.606993,-0.156868,-0.775792,-0.071412,0.021820,-0.013942,0.015022,-0.002571,0.021269,0.076861,-0.022996,0.125896,0.057076
1403637133113318912,4.631430,-1.786801,0.577520,0.607122,-0.156850,-0.775719,-0.071141,0.022511,-0.014176,0.015153,-0.002571,0.021269,0.076861,-0.022996,0.125896,0.057076
1403637133118319104,4.631544,-1.786870,0.577597,0.607245,-0.156844,-0.775650,-0.070867,0.022838,-0.013764,0.015478,-0.002571,0.021269,0.076861,-0.022996,0.125896,0.057076
1403637133123318784,4.631658,-1.786936,0.577675,0.607371,-0.156857,-0.775574,-0.070589,0.022934,-0.012642,0.015995,-0.002571,0.021269,0.076861,-0.022996,0.125896,0.057076
1403637133128318976,4.631773,-1.786996,0.577756,0.607499,-0.156892,-0.775489,-0.070334,0.023040,-0.011138,0.016408,-0.002571,0.021269,0.076861,-0.022996,0.125896,0.057076
1403637133133318912,4.631889,-1.787047,0.577839,0.607617,-0.156939,-0.775407,-0.070120,0.023229,-0.009252,0.016775,-0.002571,0.021269,0.076861,-0.022996,0.125896,0.057076
1403637133138319104,4.632008,-1.787084,0.577913,0.607716,-0.156978,-0.775335,-0.069958,0.023285,-0.007199,0.016753,-0.002571,0.021269,0.076861,-0.022996,0.125896,0.057076
1403637133143318784,4.632124,-1.787116,0.577998,0.607775,-0.156998,-0.775294,-0.069861,0.022993,-0.005633,0.017106,-0.002571,0.021269,0.076861,-0.022996,0.125896,0.057076
1403637133148318976,4.632238,-1.787140,0.578085,0.607795,-0.156998,-0.775282,-0.069821,0.022631,-0.003900,0.018009,-0.002571,0.021269,0.076861,-0.022996,0.125896,0.057076
1403637133153318912,4.632350,-1.787154,0.578179,0.607793,-0.156982,-0.775285,-0.069830,0.021941,-0.002025,0.019473,-0.002571,0.021269,0.076861,-0.022996,0.125896,0.057076
1403637133158319104,4.632456,-1.787159,0.578280,0.607771,-0.156953,-0.775304,-0.069881,0.020729,0.000077,0.020998,-0.002571,0.021269,0.076861,-0.022996,0.125896,0.057076
1403637133163319040,4.632557,-1.787153,0.578390,0.607744,-0.156917,-0.775324,-0.069972,0.019404,0.002546,0.022882,-0.002571,0.021269,0.076861,-0.022996,0.125896,0.057076
1403637133168318976,4.632651,-1.787134,0.578509,0.607729,-0.156873,-0.775333,-0.070104,0.018171,0.004850,0.024876,-0.002571,0.021269,0.076861,-0.022996,0.125896,0.057076
1403637133173319168,4.632738,-1.787104,0.578638,0.607722,-0.156814,-0.775335,-0.070276,0.016950,0.007047,0.026381,-0.002571,0.021269,0.076861,-0.022996,0.125896,0.057076
1403637133178319104,4.632820,-1.787063,0.578771,0.607727,-0.156740,-0.775327,-0.070483,0.015771,0.009388,0.026938,-0.002571,0.021269,0.076861,-0.022996,0.125896,0.057076
1403637133183319040,4.632896,-1.787011,0.578905,0.607733,-0.156644,-0.775320,-0.070732,0.014731,0.011513,0.026585,-0.002571,0.021269,0.076861,-0.022996,0.125896,0.057076
1403637133188318976,4.632967,-1.786949,0.579035,0.607715,-0.156544,-0.775327,-0.071031,0.013602,0.013331,0.025391,-0.002571,0.021269,0.076861,-0.022996,0.125896,0.057076
1403637133193319168,4.633032,-1.786879,0.579157,0.607670,-0.156450,-0.775350,-0.071368,0.012278,0.014771,0.023408,-0.002571,0.021269,0.076861,-0.022996,0.125896,0.057076
1403637133198318848,4.633090,-1.786803,0.579269,0.607603,-0.156351,-0.775388,-0.071736,0.011028,0.015614,0.021494,-0.002571,0.021269,0.076861,-0.022996,0.125896,0.057076
1403637133203319040,4.633143,-1.786724,0.579373,0.607524,-0.156251,-0.775434,-0.072130,0.009929,0.016046,0.020144,-0.002571,0.021269,0.076861,-0.022996,0.125896,0.057076
1403637133208318976,4.633190,-1.786643,0.579472,0.607447,-0.156151,-0.775476,-0.072546,0.009106,0.016105,0.019356,-0.002571,0.021269,0.076861,-0.022996,0.125896,0.057076
1403637133213319168,4.633234,-1.786565,0.579568,0.607377,-0.156052,-0.775511,-0.072974,0.008596,0.015200,0.019255,-0.002571,0.021269,0.076861,-0.022996,0.125896,0.057076
1403637133218318848,4.633277,-1.786494,0.579667,0.607317,-0.155956,-0.775538,-0.073393,0.008524,0.013315,0.020186,-0.002571,0.021269,0.076861,-0.022996,0.125896,0.057076
1403637133223319040,4.633321,-1.786433,0.579771,0.607270,-0.155870,-0.775554,-0.073784,0.008950,0.010978,0.021422,-0.002571,0.021269,0.076861,-0.022996,0.125896,0.057076
1403637133228318976,4.633368,-1.786384,0.579881,0.607219,-0.155791,-0.775577,-0.074134,0.009953,0.008728,0.022683,-0.002571,0.021269,0.076861,-0.022996,0.125896,0.057076
1403637133233319168,4.633422,-1.786344,0.579999,0.607153,-0.155712,-0.775615,-0.074453,0.011523,0.007212,0.024376,-0.002571,0.021269,0.076861,-0.022996,0.125896,0.057076
1403637133238318848,4.633491,-1.786283,0.580067,0.607060,-0.155635,-0.775672,-0.074762,0.013548,0.007119,0.025233,-0.002571,0.021269,0.076861,-0.022996,0.125896,0.057076
1403637133243319040,4.633564,-1.786247,0.580200,0.606939,-0.155549,-0.775752,-0.075087,0.015519,0.006989,0.027898,-0.002571,0.021269,0.076861,-0.022996,0.125896,0.057076
1403637133248318976,4.633646,-1.786212,0.580347,0.606806,-0.155447,-0.775843,-0.075438,0.017172,0.006978,0.031172,-0.002571,0.021269,0.076861,-0.022996,0.125896,0.057076
1403637133253318912,4.633735,-1.786178,0.580512,0.606672,-0.155334,-0.775935,-0.075797,0.018384,0.006854,0.034578,-0.002571,0.021269,0.076861,-0.022996,0.125896,0.057076
1403637133258318848,4.633828,-1.786144,0.580693,0.606553,-0.155221,-0.776017,-0.076145,0.019186,0.006569,0.037939,-0.002571,0.021269,0.076861,-0.022996,0.125896,0.057076
1403637133263319040,4.633925,-1.786113,0.580890,0.606453,-0.155118,-0.776084,-0.076464,0.019627,0.006058,0.040851,-0.002571,0.021269,0.076861,-0.022996,0.125896,0.057076
1403637133268318976,4.634024,-1.786084,0.581100,0.606370,-0.155029,-0.776140,-0.076738,0.019825,0.005436,0.043026,-0.002571,0.021269,0.076861,-0.022996,0.125896,0.057076
1403637133273318912,4.634123,-1.786059,0.581318,0.606291,-0.154961,-0.776193,-0.076966,0.019755,0.004667,0.044359,-0.002571,0.021269,0.076861,-0.022996,0.125896,0.057076
1403637133278318848,4.634221,-1.786038,0.581543,0.606209,-0.154912,-0.776249,-0.077145,0.019515,0.003702,0.045472,-0.002571,0.021269,0.076861,-0.022996,0.125896,0.057076
1403637133283319040,4.634318,-1.786021,0.581773,0.606133,-0.154874,-0.776303,-0.077276,0.019342,0.003005,0.046644,-0.002571,0.021269,0.076861,-0.022996,0.125896,0.057076
1403637133288319232,4.634415,-1.785997,0.581991,0.606058,-0.154848,-0.776356,-0.077373,0.019440,0.003224,0.047240,-0.002571,0.021269,0.076861,-0.022996,0.125896,0.057076
1403637133293318912,4.634513,-1.785981,0.582232,0.605971,-0.154838,-0.776418,-0.077455,0.019773,0.003288,0.049132,-0.002571,0.021269,0.076861,-0.022996,0.125896,0.057076
1403637133298319104,4.634612,-1.785964,0.582485,0.605873,-0.154832,-0.776487,-0.077536,0.019964,0.003518,0.051859,-0.002571,0.021269,0.076861,-0.022996,0.125896,0.057076
1403637133303319040,4.634712,-1.785946,0.582753,0.605770,-0.154828,-0.776559,-0.077637,0.020000,0.003801,0.055329,-0.002571,0.021269,0.076861,-0.022996,0.125896,0.057076
1403637133308318976,4.634812,-1.785926,0.583039,0.605659,-0.154833,-0.776632,-0.077760,0.019981,0.004053,0.059153,-0.002571,0.021269,0.076861,-0.022996,0.125896,0.057076
1403637133313318912,4.634912,-1.785905,0.583346,0.605537,-0.154848,-0.776710,-0.077900,0.020101,0.004475,0.063515,-0.002571,0.021269,0.076861,-0.022996,0.125896,0.057076
1403637133318319104,4.635014,-1.785880,0.583676,0.605416,-0.154864,-0.776786,-0.078057,0.020611,0.005288,0.068503,-0.002571,0.021269,0.076861,-0.022996,0.125896,0.057076
1403637133323319040,4.635119,-1.785851,0.584031,0.605290,-0.154887,-0.776861,-0.078236,0.021494,0.006350,0.073603,-0.002571,0.021269,0.076861,-0.022996,0.125896,0.057076
1403637133328318976,4.635229,-1.785817,0.584411,0.605154,-0.154921,-0.776939,-0.078454,0.022503,0.007410,0.078354,-0.002571,0.021269,0.076861,-0.022996,0.125896,0.057076
1403637133333318912,4.635344,-1.785777,0.584813,0.605004,-0.154964,-0.777020,-0.078711,0.023362,0.008428,0.082339,-0.002571,0.021269,0.076861,-0.022996,0.125896,0.057076
1403637133338319104,4.635461,-1.785723,0.585216,0.604837,-0.155029,-0.777110,-0.078987,0.023984,0.009844,0.085137,-0.002571,0.021269,0.076861,-0.022996,0.125897,0.057076
1403637133343319040,4.635583,-1.785671,0.585650,0.604653,-0.155119,-0.777206,-0.079270,0.024502,0.010704,0.088587,-0.002571,0.021269,0.076861,-0.022996,0.125897,0.057076
1403637133348318976,4.635706,-1.785616,0.586102,0.604462,-0.155239,-0.777302,-0.079556,0.024911,0.011488,0.091944,-0.002571,0.021269,0.076861,-0.022996,0.125897,0.057076
1403637133353318912,4.635831,-1.785556,0.586568,0.604271,-0.155400,-0.777389,-0.079846,0.025130,0.012352,0.094805,-0.002571,0.021269,0.076861,-0.022996,0.125897,0.057076
1403637133358319104,4.635957,-1.785493,0.587049,0.604076,-0.155604,-0.777470,-0.080128,0.025015,0.013016,0.097348,-0.002571,0.021269,0.076861,-0.022996,0.125897,0.057076
1403637133363319040,4.636081,-1.785427,0.587542,0.603880,-0.155852,-0.777546,-0.080389,0.024753,0.013515,0.099738,-0.002571,0.021269,0.076861,-0.022996,0.125897,0.057076
1403637133368318976,4.636204,-1.785358,0.588045,0.603692,-0.156144,-0.777609,-0.080629,0.024519,0.013923,0.101687,-0.002571,0.021269,0.076861,-0.022996,0.125897,0.057076
1403637133373318912,4.636326,-1.785288,0.588556,0.603512,-0.156471,-0.777659,-0.080854,0.024232,0.013968,0.102518,-0.002571,0.021269,0.076861,-0.022996,0.125897,0.057076
1403637133378319104,4.636447,-1.785219,0.589068,0.603320,-0.156795,-0.777718,-0.081087,0.024195,0.013592,0.102353,-0.002571,0.021269,0.076861,-0.022996,0.125897,0.057076
1403637133383318784,4.636569,-1.785153,0.589579,0.603111,-0.157098,-0.777794,-0.081336,0.024568,0.012987,0.102046,-0.002571,0.021269,0.076861,-0.022996,0.125897,0.057076
1403637133388318976,4.636691,-1.785078,0.590069,0.602884,-0.157385,-0.777885,-0.081585,0.025063,0.012771,0.101023,-0.002571,0.021269,0.076861,-0.022996,0.125897,0.057076
1403637133393318912,4.636817,-1.785016,0.590573,0.602644,-0.157655,-0.777991,-0.081829,0.025438,0.011929,0.100320,-0.002571,0.021269,0.076861,-0.022996,0.125897,0.057076
1403637133398319104,4.636944,-1.784958,0.591069,0.602381,-0.157913,-0.778117,-0.082070,0.025064,0.011175,0.098249,-0.002571,0.021269,0.076861,-0.022996,0.125897,0.057076
1403637133403318784,4.637067,-1.784904,0.591552,0.602087,-0.158173,-0.778269,-0.082291,0.024270,0.010320,0.095063,-0.002571,0.021269,0.076861,-0.022996,0.125897,0.057076
1403637133408318976,4.637186,-1.784856,0.592021,0.601780,-0.158426,-0.778435,-0.082480,0.023309,0.009087,0.092265,-0.002571,0.021269,0.076861,-0.022996,0.125897,0.057076
1403637133413319168,4.637300,-1.784814,0.592477,0.601480,-0.158670,-0.778600,-0.082637,0.022274,0.007738,0.090324,-0.002571,0.021269,0.076861,-0.022996,0.125897,0.057076
1403637133418319104,4.637409,-1.784778,0.592925,0.601194,-0.158907,-0.778759,-0.082769,0.021289,0.006539,0.088656,-0.002571,0.021269,0.076861,-0.022996,0.125897,0.057076
1403637133423319040,4.637513,-1.784749,0.593363,0.600924,-0.159135,-0.778909,-0.082878,0.020280,0.005090,0.086732,-0.002571,0.021269,0.076861,-0.022996,0.125897,0.057076
1403637133428318976,4.637612,-1.784729,0.593791,0.600674,-0.159348,-0.779052,-0.082940,0.019363,0.002793,0.084353,-0.002571,0.021269,0.076861,-0.022996,0.125897,0.057076
1403637133433319168,4.637707,-1.784723,0.594205,0.600443,-0.159546,-0.779190,-0.082932,0.018659,-0.000405,0.081365,-0.002571,0.021269,0.076861,-0.022996,0.125897,0.057076
1403637133438318848,4.637800,-1.784734,0.594603,0.600212,-0.159725,-0.779341,-0.082847,0.018406,-0.004034,0.077903,-0.002571,0.021269,0.076861,-0.022996,0.125897,0.057076
1403637133443319040,4.637889,-1.784746,0.594959,0.599968,-0.159884,-0.779510,-0.082700,0.018760,-0.006362,0.073467,-0.002571,0.021269,0.076861,-0.022996,0.125897,0.057076
1403637133448318976,4.637985,-1.784782,0.595318,0.599712,-0.160036,-0.779696,-0.082515,0.019799,-0.008241,0.070252,-0.002571,0.021269,0.076861,-0.022996,0.125897,0.057076
1403637133453319168,4.638087,-1.784828,0.595662,0.599432,-0.160178,-0.779905,-0.082306,0.020797,-0.009934,0.067350,-0.002571,0.021269,0.076861,-0.022996,0.125897,0.057076
1403637133458318848,4.638193,-1.784881,0.595992,0.599127,-0.160289,-0.780139,-0.082093,0.021642,-0.011595,0.064802,-0.002571,0.021269,0.076861,-0.022996,0.125897,0.057076
1403637133463319040,4.638303,-1.784942,0.596311,0.598812,-0.160365,-0.780387,-0.081879,0.022473,-0.012710,0.062582,-0.002571,0.021269,0.076861,-0.022996,0.125897,0.057076
1403637133468318976,4.638417,-1.785007,0.596619,0.598490,-0.160418,-0.780646,-0.081659,0.023186,-0.013044,0.060712,-0.002571,0.021269,0.076861,-0.022996,0.125897,0.057076
1403637133473319168,4.638534,-1.785069,0.596917,0.598160,-0.160456,-0.780913,-0.081456,0.023512,-0.012082,0.058576,-0.002571,0.021269,0.076861,-0.022996,0.125897,0.057076
1403637133478318848,4.638651,-1.785122,0.597202,0.597798,-0.160512,-0.781197,-0.081283,0.023361,-0.008792,0.055199,-0.002571,0.021269,0.076861,-0.022996,0.125897,0.057076
1403637133483319040,4.638766,-1.785151,0.597468,0.597391,-0.160625,-0.781498,-0.081149,0.022586,-0.003005,0.051260,-0.002571,0.021269,0.076861,-0.022996,0.125897,0.057076
1403637133488318976,4.638875,-1.785148,0.597715,0.596940,-0.160803,-0.781814,-0.081077,0.020934,0.004132,0.047815,-0.002571,0.021269,0.076861,-0.022996,0.125897,0.057076
1403637133493318912,4.638973,-1.785110,0.597950,0.596459,-0.161033,-0.782135,-0.081067,0.018531,0.011230,0.045949,-0.002571,0.021269,0.076861,-0.022996,0.125897,0.057076
1403637133498318848,4.639059,-1.785039,0.598180,0.595986,-0.161294,-0.782439,-0.081104,0.015559,0.016990,0.045916,-0.002571,0.021269,0.076861,-0.022996,0.125897,0.057076
1403637133503319040,4.639129,-1.784945,0.598411,0.595552,-0.161566,-0.782707,-0.081163,0.012503,0.020740,0.046604,-0.002571,0.021269,0.076861,-0.022996,0.125897,0.057076
1403637133508318976,4.639185,-1.784836,0.598644,0.595178,-0.161828,-0.782932,-0.081216,0.010000,0.022981,0.046747,-0.002571,0.021269,0.076861,-0.022996,0.125897,0.057076
1403637133513318912,4.639231,-1.784717,0.598874,0.594850,-0.162086,-0.783125,-0.081242,0.008238,0.024387,0.045069,-0.002571,0.021269,0.076861,-0.022996,0.125897,0.057076
1403637133518318848,4.639270,-1.784594,0.599090,0.594520,-0.162365,-0.783319,-0.081235,0.007508,0.025087,0.041515,-0.002571,0.021269,0.076861,-0.022996,0.125897,0.057076
1403637133523319040,4.639308,-1.784468,0.599287,0.594159,-0.162675,-0.783532,-0.081194,0.007878,0.025245,0.037228,-0.002571,0.021269,0.076861,-0.022996,0.125897,0.057076
1403637133528318976,4.639350,-1.784342,0.599463,0.593764,-0.163014,-0.783770,-0.081118,0.008941,0.025052,0.032997,-0.002571,0.021269,0.076861,-0.022996,0.125897,0.057076
1403637133533318912,4.639398,-1.784218,0.599619,0.593336,-0.163366,-0.784030,-0.081028,0.010209,0.024449,0.029371,-0.002571,0.021269,0.076861,-0.022996,0.125897,0.057076
1403637133538319104,4.639430,-1.784033,0.599643,0.592890,-0.163717,-0.784301,-0.080934,0.010828,0.024903,0.024424,-0.002571,0.021269,0.076861,-0.022996,0.125897,0.057076
1403637133543319040,4.639486,-1.783910,0.599762,0.592451,-0.164062,-0.784572,-0.080830,0.011592,0.024084,0.023178,-0.002571,0.021269,0.076861,-0.022996,0.125897,0.057076
1403637133548318976,4.639546,-1.783791,0.599877,0.592027,-0.164403,-0.784831,-0.080723,0.012109,0.023753,0.022872,-0.002571,0.021269,0.076861,-0.022996,0.125897,0.057076
1403637133553318912,4.639608,-1.783671,0.599994,0.591630,-0.164742,-0.785070,-0.080626,0.012731,0.024294,0.023680,-0.002571,0.021269,0.076861,-0.022996,0.125897,0.057076
1403637133558319104,4.639673,-1.783546,0.600117,0.591261,-0.165075,-0.785287,-0.080541,0.013575,0.025474,0.025415,-0.002571,0.021269,0.076861,-0.022996,0.125897,0.057076
1403637133563319040,4.639744,-1.783415,0.600249,0.590909,-0.165403,-0.785489,-0.080477,0.014478,0.026841,0.027661,-0.002571,0.021269,0.076861,-0.022996,0.125897,0.057076
1403637133568318976,4.639818,-1.783277,0.600394,0.590557,-0.165720,-0.785692,-0.080443,0.015377,0.028426,0.030226,-0.002571,0.021269,0.076861,-0.022996,0.125897,0.057076
1403637133573318912,4.639898,-1.783130,0.600552,0.590193,-0.166017,-0.785901,-0.080450,0.016513,0.030372,0.033082,-0.002571,0.021269,0.076861,-0.022996,0.125897,0.057076
1403637133578319104,4.639984,-1.782973,0.600726,0.589821,-0.166290,-0.786118,-0.080499,0.017765,0.032586,0.036214,-0.002571,0.021269,0.076861,-0.022996,0.125897,0.057076
1403637133583319040,4.640076,-1.782805,0.600916,0.589443,-0.166539,-0.786340,-0.080591,0.019002,0.034582,0.039845,-0.002571,0.021269,0.076861,-0.022996,0.125897,0.057076
1403637133588318976,4.640165,-1.782605,0.601081,0.589073,-0.166775,-0.786552,-0.080720,0.019950,0.037020,0.042121,-0.002571,0.021269,0.076861,-0.022997,0.125897,0.057076
1403637133593318912,4.640268,-1.782417,0.601301,0.588725,-0.167007,-0.786748,-0.080866,0.021062,0.037973,0.045950,-0.002571,0.021269,0.076861,-0.022997,0.125897,0.057076
1403637133598319104,4.640376,-1.782227,0.601539,0.588400,-0.167245,-0.786926,-0.081007,0.022030,0.038253,0.049209,-0.002571,0.021269,0.076861,-0.022997,0.125897,0.057076
1403637133603319040,4.640488,-1.782036,0.601792,0.588097,-0.167492,-0.787087,-0.081138,0.022935,0.038088,0.052114,-0.002571,0.021269,0.076861,-0.022997,0.125897,0.057076
1403637133608318976,4.640605,-1.781846,0.602059,0.587812,-0.167745,-0.787234,-0.081259,0.024038,0.037826,0.054477,-0.002571,0.021269,0.076861,-0.022997,0.125897,0.057076
1403637133613318912,4.640729,-1.781658,0.602335,0.587538,-0.167999,-0.787373,-0.081366,0.025420,0.037390,0.056248,-0.002571,0.021269,0.076861,-0.022997,0.125897,0.057076
1403637133618319104,4.640860,-1.781473,0.602621,0.587271,-0.168251,-0.787508,-0.081464,0.026855,0.036657,0.057840,-0.002571,0.021269,0.076861,-0.022997,0.125897,0.057076
1403637133623318784,4.640998,-1.781291,0.602914,0.587010,-0.168495,-0.787641,-0.081556,0.028349,0.036074,0.059389,-0.002571,0.021269,0.076861,-0.022997,0.125897,0.057076
1403637133628318976,4.641143,-1.781112,0.603215,0.586755,-0.168735,-0.787771,-0.081636,0.029876,0.035748,0.061298,-0.002571,0.021269,0.076861,-0.022997,0.125897,0.057076
1403637133633318912,4.641296,-1.780933,0.603529,0.586501,-0.168976,-0.787901,-0.081717,0.031302,0.035722,0.064016,-0.002571,0.021269,0.076861,-0.022997,0.125897,0.057076
1403637133638319104,4.641456,-1.780753,0.603858,0.586248,-0.169203,-0.788031,-0.081809,0.032575,0.036100,0.067812,-0.002571,0.021269,0.076861,-0.022997,0.125897,0.057076
1403637133643318784,4.641614,-1.780544,0.604162,0.586005,-0.169406,-0.788154,-0.081926,0.033563,0.037724,0.071251,-0.002571,0.021269,0.076861,-0.022997,0.125897,0.057077
1403637133648318976,4.641785,-1.780353,0.604534,0.585779,-0.169582,-0.788269,-0.082079,0.034762,0.038548,0.077478,-0.002571,0.021269,0.076861,-0.022997,0.125897,0.057077
1403637133653318912,4.641962,-1.780158,0.604939,0.585558,-0.169723,-0.788383,-0.082270,0.036025,0.039475,0.084701,-0.002571,0.021269,0.076861,-0.022997,0.125897,0.057077
1403637133658319104,4.642146,-1.779959,0.605382,0.585351,-0.169832,-0.788489,-0.082506,0.037437,0.040346,0.092496,-0.002571,0.021269,0.076861,-0.022997,0.125897,0.057077
1403637133663319040,4.642336,-1.779756,0.605864,0.585159,-0.169910,-0.788585,-0.082781,0.038777,0.040760,0.100275,-0.002571,0.021269,0.076861,-0.022997,0.125897,0.057077
1403637133668318976,4.642533,-1.779552,0.606384,0.584976,-0.169955,-0.788679,-0.083093,0.039946,0.040769,0.107720,-0.002571,0.021269,0.076861,-0.022997,0.125897,0.057077
1403637133673319168,4.642736,-1.779349,0.606940,0.584803,-0.169976,-0.788767,-0.083428,0.041029,0.040630,0.114657,-0.002571,0.021269,0.076861,-0.022997,0.125897,0.057077
1403637133678319104,4.642944,-1.779146,0.607530,0.584635,-0.169986,-0.788854,-0.083771,0.042172,0.040333,0.121125,-0.002571,0.021269,0.076861,-0.022997,0.125897,0.057077
1403637133683319040,4.643157,-1.778946,0.608151,0.584470,-0.169995,-0.788938,-0.084109,0.043377,0.039785,0.127423,-0.002571,0.021269,0.076861,-0.022997,0.125897,0.057077
1403637133688318976,4.643372,-1.778728,0.608772,0.584321,-0.170016,-0.789009,-0.084432,0.044273,0.039821,0.132381,-0.002571,0.021269,0.076861,-0.022997,0.125897,0.057077
1403637133693319168,4.643596,-1.778531,0.609450,0.584190,-0.170059,-0.789065,-0.084728,0.045271,0.038706,0.138513,-0.002571,0.021269,0.076861,-0.022997,0.125897,0.057077
1403637133698318848,4.643825,-1.778341,0.610157,0.584074,-0.170119,-0.789109,-0.084995,0.046195,0.037337,0.144414,-0.002571,0.021269,0.076861,-0.022997,0.125897,0.057077
1403637133703319040,4.644058,-1.778158,0.610894,0.583977,-0.170198,-0.789140,-0.085221,0.046997,0.035862,0.150324,-0.002571,0.021269,0.076861,-0.022997,0.125897,0.057077
1403637133708318976,4.644295,-1.777982,0.611660,0.583901,-0.170302,-0.789154,-0.085400,0.047918,0.034587,0.156210,-0.002571,0.021269,0.076861,-0.022997,0.125897,0.057077
1403637133713319168,4.644537,-1.777811,0.612456,0.583834,-0.170424,-0.789160,-0.085556,0.048966,0.033815,0.162259,-0.002571,0.021269,0.076861,-0.022997,0.125897,0.057077
1403637133718318848,4.644784,-1.777643,0.613284,0.583763,-0.170558,-0.789167,-0.085711,0.049852,0.033441,0.168795,-0.002571,0.021269,0.076861,-0.022997,0.125897,0.057077
1403637133723319040,4.645036,-1.777477,0.614145,0.583688,-0.170702,-0.789174,-0.085870,0.050688,0.032910,0.175757,-0.002571,0.021269,0.076861,-0.022997,0.125897,0.057077
1403637133728318976,4.645291,-1.777315,0.615043,0.583611,-0.170841,-0.789183,-0.086037,0.051621,0.032015,0.183219,-0.002571,0.021269,0.076861,-0.022997,0.125897,0.057077
1403637133733319168,4.645552,-1.777157,0.615979,0.583545,-0.170968,-0.789185,-0.086211,0.052579,0.030976,0.191103,-0.002571,0.021269,0.076861,-0.022997,0.125897,0.057077
1403637133738318848,4.645812,-1.776983,0.616932,0.583494,-0.171087,-0.789177,-0.086391,0.053330,0.030855,0.198328,-0.002571,0.021269,0.076861,-0.022997,0.125897,0.057077
1403637133743319040,4.646081,-1.776831,0.617943,0.583456,-0.171197,-0.789160,-0.086585,0.054225,0.029974,0.206210,-0.002571,0.021269,0.076861,-0.022997,0.125897,0.057077
1403637133748318976,4.646354,-1.776684,0.618992,0.583425,-0.171307,-0.789136,-0.086794,0.054812,0.028951,0.213624,-0.002571,0.021269,0.076861,-0.022997,0.125897,0.057077
1403637133753318912,4.646628,-1.776542,0.620078,0.583395,-0.171429,-0.789108,-0.087008,0.054956,0.027650,0.220686,-0.002571,0.021269,0.076861,-0.022997,0.125897,0.057077
1403637133758318848,4.646902,-1.776408,0.621199,0.583369,-0.171565,-0.789074,-0.087227,0.054693,0.026215,0.227444,-0.002571,0.021269,0.076861,-0.022997,0.125897,0.057077
1403637133763319040,4.647173,-1.776280,0.622352,0.583339,-0.171709,-0.789040,-0.087451,0.053879,0.025012,0.233859,-0.002571,0.021269,0.076861,-0.022997,0.125897,0.057077
1403637133768318976,4.647440,-1.776156,0.623536,0.583313,-0.171873,-0.788998,-0.087680,0.052543,0.024394,0.239767,-0.002571,0.021269,0.076861,-0.022997,0.125897,0.057077
1403637133773318912,4.647698,-1.776034,0.624748,0.583285,-0.172070,-0.788951,-0.087908,0.050854,0.024403,0.245123,-0.002571,0.021269,0.076861,-0.022997,0.125897,0.057077
1403637133778318848,4.647948,-1.775911,0.625987,0.583241,-0.172296,-0.788909,-0.088139,0.049039,0.024992,0.250556,-0.002571,0.021269,0.076861,-0.022997,0.125897,0.057077
1403637133783319040,4.648188,-1.775782,0.627256,0.583182,-0.172547,-0.788869,-0.088387,0.047157,0.026254,0.256796,-0.002571,0.021269,0.076861,-0.022997,0.125897,0.057077
1403637133788319232,4.648419,-1.775647,0.628558,0.583106,-0.172815,-0.788835,-0.088669,0.045154,0.028021,0.264011,-0.002571,0.021269,0.076861,-0.022997,0.125897,0.057077
1403637133793318912,4.648640,-1.775502,0.629898,0.583005,-0.173094,-0.788812,-0.088999,0.043118,0.029970,0.271915,-0.002571,0.021269,0.076861,-0.022997,0.125897,0.057077
1403637133798319104,4.648850,-1.775347,0.631278,0.582874,-0.173376,-0.788804,-0.089379,0.040920,0.031937,0.280290,-0.002571,0.021269,0.076861,-0.022997,0.125897,0.057077
1403637133803319040,4.649048,-1.775183,0.632702,0.582710,-0.173667,-0.788815,-0.089783,0.038479,0.033600,0.289191,-0.002571,0.021269,0.076861,-0.022997,0.125897,0.057077
1403637133808318976,4.649234,-1.775012,0.634172,0.582521,-0.173977,-0.788840,-0.090188,0.035934,0.034689,0.298772,-0.002571,0.021269,0.076861,-0.022997,0.125897,0.057077
1403637133813318912,4.649408,-1.774838,0.635691,0.582319,-0.174316,-0.788871,-0.090575,0.033616,0.035118,0.309095,-0.002571,0.021269,0.076861,-0.022997,0.125897,0.057077
1403637133818319104,4.649571,-1.774662,0.637264,0.582116,-0.174693,-0.788897,-0.090932,0.031657,0.035106,0.319881,-0.002571,0.021269,0.076861,-0.022997,0.125897,0.057077
1403637133823319040,4.649726,-1.774488,0.638890,0.581917,-0.175096,-0.788916,-0.091259,0.030067,0.034766,0.330489,-0.002571,0.021269,0.076861,-0.022997,0.125897,0.057077
1403637133828318976,4.649873,-1.774315,0.640568,0.581714,-0.175519,-0.788936,-0.091566,0.028923,0.034272,0.340630,-0.002571,0.021269,0.076861,-0.022997,0.125897,0.057077
1403637133833318912,4.650016,-1.774145,0.642295,0.581501,-0.175950,-0.788963,-0.091866,0.028167,0.033894,0.350305,-0.002571,0.021269,0.076861,-0.022997,0.125897,0.057077
1403637133838319104,4.650119,-1.773883,0.644063,0.581268,-0.176376,-0.789002,-0.092167,0.026802,0.035387,0.359860,-0.002571,0.021269,0.076861,-0.022997,0.125897,0.057077
1403637133843319040,4.650252,-1.773707,0.645885,0.581004,-0.176798,-0.789065,-0.092483,0.026309,0.035162,0.368586,-0.002571,0.021269,0.076861,-0.022997,0.125897,0.057077
1403637133848318976,4.650382,-1.773531,0.647749,0.580709,-0.177208,-0.789151,-0.092820,0.025756,0.035081,0.377214,-0.002571,0.021269,0.076861,-0.022997,0.125897,0.057077
1403637133853318912,4.650509,-1.773356,0.649657,0.580391,-0.177617,-0.789252,-0.093169,0.025054,0.035020,0.386045,-0.002571,0.021269,0.076861,-0.022997,0.125897,0.057077
1403637133858319104,4.650632,-1.773181,0.651611,0.580056,-0.178026,-0.789364,-0.093526,0.024177,0.034844,0.395591,-0.002571,0.021269,0.076861,-0.022997,0.125897,0.057077
1403637133863319040,4.650750,-1.773008,0.653615,0.579717,-0.178433,-0.789480,-0.093881,0.022833,0.034490,0.405740,-0.002571,0.021269,0.076861,-0.022997,0.125897,0.057077
1403637133868318976,4.650860,-1.772838,0.655670,0.579383,-0.178847,-0.789592,-0.094216,0.021201,0.033740,0.416325,-0.002571,0.021269,0.076861,-0.022997,0.125897,0.057077
1403637133873318912,4.650962,-1.772672,0.657779,0.579063,-0.179280,-0.789694,-0.094510,0.019464,0.032516,0.427258,-0.002571,0.021269,0.076861,-0.022997,0.125897,0.057077
1403637133878319104,4.651055,-1.772514,0.659943,0.578759,-0.179738,-0.789785,-0.094736,0.017764,0.030841,0.438362,-0.002571,0.021269,0.076861,-0.022997,0.125897,0.057077
1403637133883318784,4.651140,-1.772364,0.662163,0.578470,-0.180216,-0.789869,-0.094898,0.016343,0.028807,0.449775,-0.002571,0.021269,0.076861,-0.022997,0.125897,0.057077
1403637133888318976,4.651201,-1.772202,0.664476,0.578202,-0.180692,-0.789941,-0.095009,0.014553,0.027696,0.462777,-0.002571,0.021269,0.076861,-0.022997,0.125897,0.057077
1403637133893318912,4.651272,-1.772068,0.666817,0.577948,-0.181153,-0.790012,-0.095078,0.014024,0.026004,0.473866,-0.002571,0.021269,0.076861,-0.022997,0.125897,0.057077
1403637133898319104,4.651342,-1.771941,0.669213,0.577700,-0.181600,-0.790085,-0.095133,0.013900,0.024804,0.484604,-0.002571,0.021269,0.076861,-0.022997,0.125897,0.057077
1403637133903318784,4.651412,-1.771819,0.671662,0.577449,-0.182039,-0.790159,-0.095203,0.014034,0.023885,0.494901,-0.002571,0.021269,0.076861,-0.022997,0.125897,0.057077
1403637133908318976,4.651482,-1.771702,0.674161,0.577183,-0.182457,-0.790246,-0.095299,0.014101,0.023130,0.504622,-0.002571,0.021269,0.076861,-0.022997,0.125897,0.057077
1403637133913319168,4.651552,-1.771588,0.676707,0.576901,-0.182843,-0.790348,-0.095422,0.013935,0.022451,0.513802,-0.002571,0.021269,0.076861,-0.022997,0.125897,0.057077
1403637133918319104,4.651621,-1.771477,0.679298,0.576613,-0.183203,-0.790457,-0.095564,0.013516,0.021789,0.522812,-0.002571,0.021269,0.076861,-0.022997,0.125897,0.057077
1403637133923319040,4.651687,-1.771370,0.681935,0.576332,-0.183549,-0.790565,-0.095708,0.012788,0.020965,0.531671,-0.002571,0.021269,0.076861,-0.022997,0.125897,0.057077
1403637133928318976,4.651749,-1.771268,0.684615,0.576066,-0.183877,-0.790666,-0.095845,0.011902,0.020030,0.540475,-0.002571,0.021269,0.076861,-0.022997,0.125897,0.057077
1403637133933319168,4.651806,-1.771170,0.687339,0.575823,-0.184182,-0.790756,-0.095981,0.011069,0.019217,0.549044,-0.002571,0.021269,0.076861,-0.022997,0.125897,0.057077
1403637133938318848,4.651860,-1.771076,0.690104,0.575603,-0.184474,-0.790831,-0.096120,0.010574,0.018441,0.557021,-0.002571,0.021269,0.076861,-0.022997,0.125897,0.057077
1403637133943319040,4.651913,-1.770985,0.692908,0.575399,-0.184761,-0.790895,-0.096269,0.010485,0.017669,0.564712,-0.002571,0.021269,0.076861,-0.022997,0.125897,0.057077
1403637133948318976,4.651966,-1.770899,0.695751,0.575206,-0.185037,-0.790950,-0.096441,0.010680,0.016739,0.572263,-0.002571,0.021269,0.076861,-0.022997,0.125897,0.057077
1403637133953319168,4.652020,-1.770818,0.698630,0.575015,-0.185302,-0.791001,-0.096649,0.011159,0.015766,0.579435,-0.002571,0.021269,0.076861,-0.022997,0.125897,0.057077
1403637133958318848,4.652078,-1.770741,0.701545,0.574822,-0.185556,-0.791052,-0.096895,0.011959,0.014961,0.586371,-0.002571,0.021269,0.076861,-0.022997,0.125897,0.057077
1403637133963319040,4.652140,-1.770668,0.704493,0.574629,-0.185796,-0.791101,-0.097181,0.012911,0.014178,0.593180,-0.002571,0.021269,0.076861,-0.022997,0.125897,0.057077
1403637133968318976,4.652207,-1.770599,0.707476,0.574435,-0.186022,-0.791149,-0.097507,0.013770,0.013361,0.599823,-0.002571,0.021269,0.076861,-0.022997,0.125897,0.057077
1403637133973319168,4.652278,-1.770535,0.710491,0.574251,-0.186241,-0.791186,-0.097872,0.014610,0.012410,0.605994,-0.002571,0.021269,0.076861,-0.022997,0.125897,0.057077
1403637133978318848,4.652353,-1.770476,0.713534,0.574083,-0.186454,-0.791208,-0.098272,0.015501,0.011204,0.611433,-0.002571,0.021269,0.076861,-0.022997,0.125897,0.057077
1403637133983319040,4.652433,-1.770423,0.716603,0.573937,-0.186658,-0.791214,-0.098692,0.016287,0.010062,0.616183,-0.002571,0.021269,0.076861,-0.022997,0.125897,0.057077
1403637133988318976,4.652515,-1.770375,0.719693,0.573810,-0.186851,-0.791206,-0.099121,0.016668,0.009161,0.619864,-0.002571,0.021269,0.076861,-0.022997,0.125897,0.057077
1403637133993318912,4.652598,-1.770331,0.722799,0.573696,-0.187036,-0.791192,-0.099552,0.016546,0.008366,0.622472,-0.002571,0.021269,0.076861,-0.022997,0.125897,0.057077
1403637133998318848,4.652679,-1.770291,0.725917,0.573594,-0.187214,-0.791171,-0.099970,0.015981,0.007441,0.624588,-0.002571,0.021269,0.076861,-0.022997,0.125897,0.057077
1403637134003319040,4.652757,-1.770258,0.729044,0.573511,-0.187380,-0.791143,-0.100356,0.014998,0.006031,0.626373,-0.002571,0.021269,0.076861,-0.022997,0.125897,0.057077
1403637134008318976,4.652828,-1.770232,0.732180,0.573453,-0.187531,-0.791108,-0.100689,0.013661,0.004222,0.628196,-0.002571,0.021269,0.076861,-0.022997,0.125897,0.057077
1403637134013318912,4.652893,-1.770215,0.735327,0.573426,-0.187664,-0.791062,-0.100950,0.012118,0.002522,0.630197,-0.002571,0.021269,0.076861,-0.022997,0.125897,0.057077
1403637134018318848,4.652951,-1.770205,0.738483,0.573427,-0.187789,-0.791006,-0.101148,0.010928,0.001519,0.632445,-0.002571,0.021269,0.076861,-0.022997,0.125897,0.057077
1403637134023319040,4.653004,-1.770198,0.741652,0.573445,-0.187903,-0.790944,-0.101319,0.010417,0.001398,0.635172,-0.002571,0.021269,0.076861,-0.022997,0.125897,0.057077
1403637134028318976,4.653056,-1.770189,0.744836,0.573467,-0.187993,-0.790883,-0.101509,0.010378,0.002134,0.638278,-0.002571,0.021269,0.076861,-0.022997,0.125897,0.057077
1403637134033318912,4.653108,-1.770176,0.748035,0.573472,-0.188047,-0.790835,-0.101749,0.010537,0.003208,0.641265,-0.002571,0.021269,0.076861,-0.022997,0.125897,0.057077
1403637134038319104,4.652996,-1.769981,0.751785,0.573460,-0.188064,-0.790798,-0.102054,0.008771,0.006192,0.651795,-0.002571,0.021269,0.076861,-0.022997,0.125898,0.057077
1403637134043319040,4.653041,-1.769949,0.755050,0.573426,-0.188050,-0.790778,-0.102423,0.009140,0.006570,0.654257,-0.002571,0.021269,0.076861,-0.022997,0.125898,0.057077
1403637134048318976,4.653087,-1.769916,0.758327,0.573380,-0.188018,-0.790763,-0.102851,0.009493,0.006680,0.656523,-0.002571,0.021269,0.076861,-0.022997,0.125898,0.057077
1403637134053318912,4.653136,-1.769882,0.761614,0.573333,-0.187989,-0.790744,-0.103319,0.009859,0.006846,0.658261,-0.002571,0.021269,0.076861,-0.022997,0.125898,0.057077
1403637134058319104,4.653186,-1.769847,0.764908,0.573284,-0.187967,-0.790717,-0.103831,0.010224,0.007114,0.659435,-0.002571,0.021269,0.076861,-0.022997,0.125898,0.057077
1403637134063319040,4.653238,-1.769811,0.768207,0.573229,-0.187950,-0.790687,-0.104396,0.010624,0.007309,0.660067,-0.002571,0.021269,0.076861,-0.022997,0.125898,0.057077
1403637134068318976,4.653292,-1.769775,0.771507,0.573162,-0.187938,-0.790657,-0.105009,0.011074,0.007220,0.660179,-0.002571,0.021269,0.076861,-0.022997,0.125898,0.057077
1403637134073318912,4.653348,-1.769740,0.774808,0.573091,-0.187918,-0.790627,-0.105663,0.011338,0.006599,0.659921,-0.002571,0.021269,0.076861,-0.022997,0.125898,0.057077
1403637134078319104,4.653405,-1.769710,0.778106,0.573011,-0.187894,-0.790600,-0.106343,0.011264,0.005424,0.659296,-0.002571,0.021269,0.076861,-0.022997,0.125898,0.057077
1403637134083319040,4.653460,-1.769687,0.781400,0.572929,-0.187876,-0.790572,-0.107021,0.010927,0.003867,0.658358,-0.002571,0.021269,0.076861,-0.022997,0.125898,0.057077
1403637134088318976,4.653514,-1.769672,0.784689,0.572856,-0.187878,-0.790536,-0.107673,0.010522,0.002058,0.657442,-0.002571,0.021269,0.076861,-0.022997,0.125898,0.057077
1403637134093318912,4.653566,-1.769666,0.787975,0.572796,-0.187914,-0.790488,-0.108286,0.010181,0.000163,0.656898,-0.002571,0.021269,0.076861,-0.022997,0.125898,0.057077
1403637134098319104,4.653616,-1.769669,0.791260,0.572750,-0.187973,-0.790427,-0.108869,0.010006,-0.001338,0.656844,-0.002571,0.021269,0.076861,-0.022997,0.125898,0.057077
1403637134103319040,4.653666,-1.769678,0.794544,0.572715,-0.188039,-0.790358,-0.109445,0.009937,-0.002015,0.657139,-0.002571,0.021269,0.076861,-0.022997,0.125898,0.057077
1403637134108318976,4.653715,-1.769688,0.797831,0.572680,-0.188088,-0.790289,-0.110039,0.009823,-0.001970,0.657501,-0.002571,0.021269,0.076861,-0.022997,0.125898,0.057077
1403637134113318912,4.653764,-1.769696,0.801119,0.572638,-0.188101,-0.790228,-0.110675,0.009567,-0.001171,0.657724,-0.002571,0.021269,0.076861,-0.022997,0.125898,0.057077
1403637134118319104,4.653811,-1.769698,0.804408,0.572586,-0.188083,-0.790174,-0.111360,0.009253,0.000405,0.657806,-0.002571,0.021269,0.076861,-0.022997,0.125898,0.057077
1403637134123318784,4.653857,-1.769691,0.807696,0.572527,-0.188046,-0.790121,-0.112097,0.008970,0.002322,0.657617,-0.002571,0.021269,0.076861,-0.022997,0.125898,0.057077
1403637134128318976,4.653900,-1.769675,0.810982,0.572468,-0.188009,-0.790062,-0.112878,0.008475,0.004104,0.656653,-0.002571,0.021269,0.076861,-0.022997,0.125898,0.057077
1403637134133318912,4.653940,-1.769651,0.814261,0.572423,-0.187978,-0.789989,-0.113668,0.007556,0.005491,0.654918,-0.002571,0.021269,0.076861,-0.022997,0.125898,0.057077
1403637134138319104,4.653953,-1.769571,0.817895,0.572398,-0.187952,-0.789896,-0.114453,0.006151,0.007368,0.659749,-0.002571,0.021269,0.076861,-0.022997,0.125898,0.057077
1403637134143318784,4.653980,-1.769533,0.821187,0.572384,-0.187927,-0.789799,-0.115230,0.004714,0.008066,0.657046,-0.002571,0.021269,0.076861,-0.022997,0.125898,0.057077
1403637134148318976,4.653999,-1.769492,0.824466,0.572379,-0.187889,-0.789698,-0.116012,0.003195,0.008296,0.654609,-0.002571,0.021269,0.076861,-0.022997,0.125898,0.057077
1403637134153318912,4.654012,-1.769451,0.827734,0.572387,-0.187833,-0.789590,-0.116797,0.001803,0.008061,0.652776,-0.002571,0.021269,0.076861,-0.022997,0.125898,0.057077
1403637134158319104,4.654018,-1.769412,0.830996,0.572407,-0.187778,-0.789475,-0.117570,0.000547,0.007587,0.651748,-0.002571,0.021269,0.076861,-0.022997,0.125898,0.057077
1403637134163319040,4.654017,-1.769375,0.834254,0.572434,-0.187736,-0.789353,-0.118323,-0.000810,0.006918,0.651512,-0.002571,0.021269,0.076861,-0.022997,0.125898,0.057077
1403637134168318976,4.654009,-1.769342,0.837513,0.572469,-0.187711,-0.789223,-0.119059,-0.002456,0.006239,0.652176,-0.002571,0.021269,0.076861,-0.022997,0.125898,0.057077
1403637134173319168,4.653992,-1.769313,0.840778,0.572520,-0.187705,-0.789077,-0.119787,-0.004309,0.005717,0.653734,-0.002571,0.021269,0.076861,-0.022997,0.125898,0.057077
1403637134178319104,4.653966,-1.769285,0.844052,0.572593,-0.187713,-0.788913,-0.120509,-0.006213,0.005222,0.655930,-0.002571,0.021269,0.076861,-0.022997,0.125898,0.057077
1403637134183319040,4.653930,-1.769260,0.847338,0.572694,-0.187726,-0.788725,-0.121240,-0.008108,0.004696,0.658467,-0.002571,0.021269,0.076861,-0.022997,0.125898,0.057077
1403637134188318976,4.653894,-1.769231,0.850729,0.572840,-0.187738,-0.788497,-0.121990,-0.009515,0.004274,0.664218,-0.002571,0.021269,0.076861,-0.022997,0.125898,0.057077
1403637134193319168,4.653843,-1.769212,0.854053,0.573043,-0.187746,-0.788229,-0.122756,-0.010862,0.003470,0.665510,-0.002571,0.021269,0.076861,-0.022997,0.125898,0.057077
1403637134198318848,4.653787,-1.769196,0.857381,0.573289,-0.187747,-0.787926,-0.123548,-0.011466,0.002783,0.665451,-0.002571,0.021269,0.076861,-0.022997,0.125898,0.057077
1403637134203319040,4.653731,-1.769184,0.860703,0.573566,-0.187742,-0.787596,-0.124374,-0.011213,0.002032,0.663565,-0.002571,0.021269,0.076861,-0.022997,0.125898,0.057077
1403637134208318976,4.653677,-1.769176,0.864012,0.573864,-0.187733,-0.787247,-0.125232,-0.010373,0.001149,0.659978,-0.002571,0.021269,0.076861,-0.022997,0.125898,0.057077
1403637134213319168,4.653627,-1.769173,0.867300,0.574175,-0.187728,-0.786882,-0.126106,-0.009369,0.000215,0.655243,-0.002571,0.021269,0.076861,-0.022997,0.125898,0.057077
1403637134218318848,4.653583,-1.769175,0.870563,0.574492,-0.187728,-0.786513,-0.126964,-0.008462,-0.001153,0.649755,-0.002571,0.021269,0.076861,-0.022997,0.125898,0.057077
1403637134223319040,4.653542,-1.769186,0.873797,0.574822,-0.187730,-0.786140,-0.127780,-0.007862,-0.003024,0.643874,-0.002571,0.021269,0.076861,-0.022997,0.125898,0.057077
1403637134228318976,4.653504,-1.769206,0.877001,0.575183,-0.187732,-0.785753,-0.128537,-0.007473,-0.004931,0.637961,-0.002571,0.021269,0.076861,-0.022997,0.125898,0.057077
1403637134233319168,4.653467,-1.769234,0.880177,0.575577,-0.187731,-0.785351,-0.129228,-0.007178,-0.006581,0.632432,-0.002571,0.021269,0.076861,-0.022997,0.125898,0.057077
1403637134238318848,4.653445,-1.769262,0.883410,0.576013,-0.187718,-0.784925,-0.129859,-0.006451,-0.007582,0.630359,-0.002571,0.021269,0.076861,-0.022997,0.125898,0.057077
1403637134243319040,4.653413,-1.769303,0.886548,0.576493,-0.187690,-0.784485,-0.130429,-0.006313,-0.008745,0.624905,-0.002571,0.021269,0.076861,-0.022997,0.125898,0.057077
1403637134248318976,4.653382,-1.769350,0.889658,0.577007,-0.187644,-0.784036,-0.130928,-0.006324,-0.010005,0.619123,-0.002571,0.021269,0.076861,-0.022997,0.125898,0.057077
1403637134253318912,4.653349,-1.769403,0.892739,0.577545,-0.187584,-0.783582,-0.131362,-0.006593,-0.011140,0.613101,-0.002571,0.021269,0.076861,-0.022997,0.125898,0.057077
1403637134258318848,4.653316,-1.769460,0.895789,0.578094,-0.187517,-0.783130,-0.131741,-0.006735,-0.011856,0.606966,-0.002571,0.021269,0.076861,-0.022997,0.125898,0.057077
1403637134263319040,4.653282,-1.769520,0.898808,0.578648,-0.187443,-0.782684,-0.132062,-0.006733,-0.011952,0.600758,-0.002571,0.021269,0.076861,-0.022997,0.125898,0.057077
1403637134268318976,4.653248,-1.769578,0.901796,0.579209,-0.187375,-0.782238,-0.132344,-0.006935,-0.011455,0.594537,-0.002571,0.021269,0.076861,-0.022997,0.125898,0.057077
1403637134273318912,4.653213,-1.769634,0.904754,0.579780,-0.187314,-0.781784,-0.132619,-0.007349,-0.010792,0.588279,-0.002571,0.021269,0.076861,-0.022997,0.125898,0.057077
1403637134278318848,4.653174,-1.769686,0.907678,0.580367,-0.187253,-0.781317,-0.132886,-0.007906,-0.010137,0.581665,-0.002571,0.021269,0.076861,-0.022997,0.125898,0.057077
1403637134283319040,4.653134,-1.769735,0.910569,0.580978,-0.187190,-0.780834,-0.133148,-0.008401,-0.009570,0.574612,-0.002571,0.021269,0.076861,-0.022997,0.125898,0.057077
1403637134288319232,4.653106,-1.769769,0.913488,0.581615,-0.187130,-0.780327,-0.133403,-0.007927,-0.008366,0.569309,-0.002571,0.021269,0.076861,-0.022997,0.125898,0.057077
1403637134293318912,4.653067,-1.769809,0.916312,0.582269,-0.187076,-0.779810,-0.133651,-0.007685,-0.007600,0.560611,-0.002571,0.021269,0.076861,-0.022997,0.125898,0.057077
1403637134298319104,4.653030,-1.769845,0.919093,0.582926,-0.187027,-0.779289,-0.133899,-0.007109,-0.006938,0.551633,-0.002571,0.021269,0.076861,-0.022997,0.125898,0.057077
1403637134303319040,4.652997,-1.769879,0.921829,0.583577,-0.186974,-0.778771,-0.134150,-0.006200,-0.006490,0.542858,-0.002571,0.021269,0.076861,-0.022997,0.125898,0.057077
1403637134308318976,4.652968,-1.769911,0.924523,0.584220,-0.186903,-0.778261,-0.134414,-0.005196,-0.006224,0.534621,-0.002571,0.021269,0.076861,-0.022997,0.125898,0.057077
1403637134313318912,4.652945,-1.769941,0.927177,0.584858,-0.186808,-0.777757,-0.134691,-0.004244,-0.006003,0.526932,-0.002571,0.021269,0.076861,-0.022997,0.125898,0.057077
1403637134318319104,4.652925,-1.769971,0.929793,0.585489,-0.186692,-0.777262,-0.134973,-0.003427,-0.005811,0.519487,-0.002571,0.021269,0.076861,-0.022997,0.125898,0.057077
1403637134323319040,4.652909,-1.769999,0.932372,0.586126,-0.186562,-0.776765,-0.135247,-0.002998,-0.005661,0.512248,-0.002571,0.021269,0.076861,-0.022997,0.125898,0.057077
1403637134328318976,4.652894,-1.770028,0.934915,0.586780,-0.186427,-0.776261,-0.135496,-0.002948,-0.005559,0.504961,-0.002571,0.021269,0.076861,-0.022997,0.125898,0.057077
1403637134333318912,4.652879,-1.770055,0.937421,0.587452,-0.186294,-0.775747,-0.135713,-0.003053,-0.005501,0.497452,-0.002571,0.021269,0.076861,-0.022997,0.125898,0.057077
1403637134338319104,4.652877,-1.770063,0.939932,0.588145,-0.186164,-0.775214,-0.135907,-0.002720,-0.004522,0.490976,-0.002571,0.021269,0.076861,-0.022997,0.125898,0.057077
1403637134343319040,4.652863,-1.770085,0.942363,0.588856,-0.186046,-0.774672,-0.136090,-0.003040,-0.004171,0.481825,-0.002571,0.021269,0.076861,-0.022997,0.125898,0.057077
1403637134348318976,4.652847,-1.770105,0.944746,0.589572,-0.185928,-0.774123,-0.136276,-0.003326,-0.003576,0.471315,-0.002571,0.021269,0.076861,-0.022997,0.125898,0.057077
1403637134353318912,4.652830,-1.770120,0.947073,0.590287,-0.185806,-0.773573,-0.136473,-0.003533,-0.002805,0.459490,-0.002571,0.021269,0.076861,-0.022997,0.125898,0.057077
1403637134358319104,4.652811,-1.770133,0.949338,0.590992,-0.185696,-0.773024,-0.136684,-0.004012,-0.002046,0.446544,-0.002571,0.021269,0.076861,-0.022997,0.125898,0.057077
1403637134363319040,4.652789,-1.770140,0.951536,0.591678,-0.185607,-0.772484,-0.136897,-0.004729,-0.001064,0.432584,-0.002571,0.021269,0.076861,-0.022997,0.125898,0.057077
1403637134368318976,4.652764,-1.770142,0.953662,0.592340,-0.185550,-0.771953,-0.137107,-0.005322,0.000259,0.417833,-0.002571,0.021269,0.076861,-0.022997,0.125898,0.057077
1403637134373318912,4.652737,-1.770138,0.955714,0.592985,-0.185535,-0.771425,-0.137312,-0.005743,0.001608,0.402703,-0.002571,0.021269,0.076861,-0.022997,0.125898,0.057077
1403637134378319104,4.652707,-1.770127,0.957689,0.593623,-0.185562,-0.770892,-0.137513,-0.006097,0.002744,0.387602,-0.002571,0.021269,0.076861,-0.022997,0.125898,0.057077
1403637134383318784,4.652676,-1.770111,0.959590,0.594252,-0.185624,-0.770356,-0.137719,-0.006399,0.003516,0.372567,-0.002571,0.021269,0.076861,-0.022997,0.125898,0.057077
1403637134388318976,4.652654,-1.770067,0.961433,0.594860,-0.185713,-0.769823,-0.137932,-0.006222,0.004936,0.358220,-0.002571,0.021269,0.076861,-0.022997,0.125899,0.057077
1403637134393318912,4.652622,-1.770042,0.963188,0.595451,-0.185831,-0.769299,-0.138147,-0.006367,0.004958,0.343563,-0.002571,0.021269,0.076861,-0.022997,0.125899,0.057077
1403637134398319104,4.652590,-1.770018,0.964869,0.596020,-0.185977,-0.768785,-0.138361,-0.006314,0.004682,0.328973,-0.002571,0.021269,0.076861,-0.022997,0.125899,0.057077
1403637134403318784,4.652559,-1.769996,0.966478,0.596564,-0.186160,-0.768283,-0.138561,-0.006269,0.004214,0.314436,-0.002571,0.021269,0.076861,-0.022997,0.125899,0.057077
1403637134408318976,4.652527,-1.769976,0.968015,0.597084,-0.186381,-0.767794,-0.138736,-0.006478,0.003614,0.300330,-0.002571,0.021269,0.076861,-0.022997,0.125899,0.057077
1403637134413319168,4.652494,-1.769960,0.969482,0.597581,-0.186626,-0.767321,-0.138886,-0.006731,0.002919,0.286804,-0.002571,0.021269,0.076861,-0.022997,0.125899,0.057077
1403637134418319104,4.652460,-1.769947,0.970884,0.598060,-0.186881,-0.766863,-0.139014,-0.007055,0.002330,0.273893,-0.002571,0.021269,0.076861,-0.022997,0.125899,0.057077
1403637134423319040,4.652423,-1.769936,0.972222,0.598530,-0.187154,-0.766412,-0.139114,-0.007570,0.001837,0.261338,-0.002571,0.021269,0.076861,-0.022997,0.125899,0.057077
1403637134428318976,4.652383,-1.769928,0.973497,0.599003,-0.187445,-0.765961,-0.139167,-0.008280,0.001323,0.248522,-0.002571,0.021269,0.076861,-0.022997,0.125899,0.057077
1403637134433319168,4.652340,-1.769923,0.974705,0.599486,-0.187753,-0.765509,-0.139168,-0.009193,0.000699,0.234886,-0.002571,0.021269,0.076861,-0.022997,0.125899,0.057077
1403637134438318848,4.652296,-1.769891,0.975834,0.599970,-0.188072,-0.765056,-0.139117,-0.010121,0.001421,0.219573,-0.002571,0.021269,0.076861,-0.022997,0.125899,0.057077
1403637134443319040,4.652242,-1.769884,0.976891,0.600451,-0.188403,-0.764619,-0.139005,-0.011429,0.001227,0.203297,-0.002571,0.021269,0.076861,-0.022997,0.125899,0.057077
1403637134448318976,4.652182,-1.769877,0.977865,0.600911,-0.188741,-0.764203,-0.138844,-0.012670,0.001658,0.185942,-0.002571,0.021269,0.076861,-0.022997,0.125899,0.057077
1403637134453319168,4.652116,-1.769866,0.978749,0.601353,-0.189085,-0.763805,-0.138655,-0.013719,0.002564,0.167866,-0.002571,0.021269,0.076861,-0.022997,0.125899,0.057077
1403637134458318848,4.652045,-1.769851,0.979542,0.601774,-0.189435,-0.763425,-0.138444,-0.014625,0.003605,0.149210,-0.002571,0.021269,0.076861,-0.022997,0.125899,0.057077
1403637134463319040,4.651970,-1.769831,0.980240,0.602173,-0.189792,-0.763065,-0.138208,-0.015392,0.004579,0.130122,-0.002571,0.021269,0.076861,-0.022997,0.125899,0.057077
1403637134468318976,4.651891,-1.769805,0.980842,0.602552,-0.190154,-0.762723,-0.137947,-0.016252,0.005701,0.110803,-0.002571,0.021269,0.076861,-0.022997,0.125899,0.057077
1403637134473319168,4.651807,-1.769773,0.981348,0.602903,-0.190525,-0.762404,-0.137666,-0.017199,0.007085,0.091343,-0.002571,0.021269,0.076861,-0.022997,0.125899,0.057077
1403637134478318848,4.651719,-1.769733,0.981757,0.603210,-0.190905,-0.762116,-0.137390,-0.018037,0.008893,0.072183,-0.002571,0.021269,0.076861,-0.022997,0.125899,0.057077
1403637134483319040,4.651628,-1.769682,0.982071,0.603466,-0.191286,-0.761863,-0.137142,-0.018516,0.011372,0.053721,-0.002571,0.021269,0.076861,-0.022997,0.125899,0.057077
1403637134488318976,4.651536,-1.769585,0.982267,0.603674,-0.191665,-0.761635,-0.136942,-0.018579,0.015394,0.034669,-0.002571,0.021269,0.076861,-0.022997,0.125899,0.057078
1403637134493318912,4.651443,-1.769502,0.982397,0.603843,-0.192039,-0.761435,-0.136790,-0.018712,0.017769,0.017460,-0.002571,0.021269,0.076861,-0.022997,0.125899,0.057078
1403637134498318848,4.651349,-1.769409,0.982443,0.603973,-0.192397,-0.761261,-0.136678,-0.019050,0.019692,0.000729,-0.002571,0.021269,0.076861,-0.022997,0.125899,0.057078
1403637134503319040,4.651252,-1.769307,0.982405,0.604067,-0.192740,-0.761117,-0.136584,-0.019514,0.021019,-0.015847,-0.002571,0.021269,0.076861,-0.022997,0.125899,0.057078
1403637134508318976,4.651154,-1.769200,0.982284,0.604130,-0.193069,-0.760999,-0.136499,-0.019866,0.021900,-0.032341,-0.002571,0.021269,0.076861,-0.022997,0.125899,0.057078
1403637134513318912,4.651054,-1.769089,0.982081,0.604166,-0.193386,-0.760904,-0.136422,-0.020243,0.022446,-0.048839,-0.002571,0.021269,0.076861,-0.022997,0.125899,0.057078
1403637134518318848,4.650951,-1.768976,0.981796,0.604176,-0.193697,-0.760833,-0.136333,-0.020693,0.022797,-0.065346,-0.002571,0.021269,0.076861,-0.022997,0.125899,0.057078
1403637134523319040,4.650847,-1.768861,0.981427,0.604167,-0.194000,-0.760784,-0.136218,-0.021235,0.023140,-0.082060,-0.002571,0.021269,0.076861,-0.022997,0.125899,0.057078
1403637134528318976,4.650738,-1.768744,0.980974,0.604134,-0.194291,-0.760762,-0.136071,-0.022053,0.023608,-0.099284,-0.002571,0.021269,0.076861,-0.022997,0.125899,0.057078
1403637134533318912,4.650626,-1.768624,0.980434,0.604076,-0.194565,-0.760770,-0.135893,-0.022874,0.024339,-0.116901,-0.002571,0.021269,0.076861,-0.022997,0.125899,0.057078
1403637134538319104,4.650510,-1.768500,0.979805,0.603999,-0.194822,-0.760802,-0.135691,-0.023433,0.025434,-0.134661,-0.002571,0.021269,0.076861,-0.022997,0.125899,0.057078
1403637134543319040,4.650392,-1.768368,0.979087,0.603900,-0.195068,-0.760855,-0.135480,-0.023704,0.027110,-0.152522,-0.002571,0.021269,0.076861,-0.022997,0.125899,0.057078
1403637134548318976,4.650274,-1.768227,0.978279,0.603776,-0.195305,-0.760929,-0.135274,-0.023626,0.029562,-0.170609,-0.002571,0.021269,0.076861,-0.022997,0.125899,0.057078
1403637134553318912,4.650157,-1.768071,0.977381,0.603622,-0.195533,-0.761024,-0.135096,-0.023131,0.032849,-0.188724,-0.002571,0.021269,0.076861,-0.022997,0.125899,0.057078
1403637134558319104,4.650044,-1.767897,0.976392,0.603434,-0.195747,-0.761141,-0.134972,-0.022276,0.036795,-0.206815,-0.002571,0.021269,0.076861,-0.022997,0.125899,0.057078
1403637134563319040,4.649935,-1.767702,0.975313,0.603201,-0.195942,-0.761284,-0.134920,-0.021188,0.041183,-0.224833,-0.002571,0.021269,0.076861,-0.022997,0.125899,0.057078
1403637134568318976,4.649832,-1.767485,0.974144,0.602925,-0.196111,-0.761455,-0.134943,-0.020113,0.045475,-0.242627,-0.002571,0.021269,0.076861,-0.022997,0.125899,0.057078
1403637134573318912,4.649733,-1.767249,0.972887,0.602612,-0.196257,-0.761650,-0.135035,-0.019218,0.049044,-0.259993,-0.002571,0.021269,0.076861,-0.022997,0.125899,0.057078
1403637134578319104,4.649639,-1.766996,0.971545,0.602261,-0.196385,-0.761868,-0.135185,-0.018549,0.051867,-0.276811,-0.002571,0.021269,0.076861,-0.022997,0.125899,0.057078
1403637134583319040,4.649547,-1.766732,0.970120,0.601872,-0.196488,-0.762114,-0.135380,-0.018185,0.054041,-0.293320,-0.002571,0.021269,0.076861,-0.022997,0.125899,0.057078
1403637134588318976,4.649457,-1.766458,0.968613,0.601451,-0.196567,-0.762388,-0.135592,-0.018045,0.055587,-0.309612,-0.002571,0.021269,0.076861,-0.022997,0.125899,0.057078
1403637134593318912,4.649366,-1.766177,0.967025,0.601007,-0.196630,-0.762685,-0.135802,-0.018200,0.056505,-0.325279,-0.002571,0.021269,0.076861,-0.022997,0.125899,0.057078
1403637134598319104,4.649274,-1.765894,0.965361,0.600545,-0.196681,-0.762999,-0.136009,-0.018702,0.056861,-0.340531,-0.002571,0.021269,0.076861,-0.022997,0.125899,0.057078
1403637134603319040,4.649179,-1.765610,0.963620,0.600071,-0.196717,-0.763328,-0.136207,-0.019333,0.056895,-0.355798,-0.002571,0.021269,0.076861,-0.022997,0.125899,0.057078
1403637134608318976,4.649080,-1.765326,0.961803,0.599588,-0.196735,-0.763672,-0.136375,-0.019993,0.056667,-0.371175,-0.002571,0.021269,0.076861,-0.022997,0.125899,0.057078
1403637134613318912,4.648979,-1.765043,0.959909,0.599097,-0.196740,-0.764034,-0.136501,-0.020684,0.056300,-0.386509,-0.002571,0.021269,0.076861,-0.022997,0.125899,0.057078
1403637134618319104,4.648873,-1.764763,0.957937,0.598598,-0.196739,-0.764410,-0.136590,-0.021422,0.055914,-0.401947,-0.002571,0.021269,0.076861,-0.022997,0.125899,0.057078
1403637134623318784,4.648765,-1.764484,0.955890,0.598095,-0.196744,-0.764794,-0.136642,-0.022044,0.055734,-0.417169,-0.002571,0.021269,0.076861,-0.022997,0.125899,0.057078
1403637134628318976,4.648654,-1.764204,0.953766,0.597588,-0.196763,-0.765184,-0.136650,-0.022410,0.055897,-0.432250,-0.002571,0.021269,0.076861,-0.022997,0.125899,0.057078
1403637134633318912,4.648541,-1.763924,0.951567,0.597079,-0.196785,-0.765579,-0.136629,-0.022571,0.056448,-0.447351,-0.002571,0.021269,0.076861,-0.022997,0.125899,0.057078
1403637134638319104,4.648429,-1.763639,0.949293,0.596562,-0.196809,-0.765982,-0.136596,-0.022457,0.057265,-0.462358,-0.002571,0.021269,0.076861,-0.022997,0.125899,0.057078
1403637134643318784,4.648317,-1.763350,0.946944,0.596034,-0.196832,-0.766394,-0.136557,-0.022070,0.058369,-0.477313,-0.002571,0.021269,0.076861,-0.022997,0.125899,0.057078
1403637134648318976,4.648208,-1.763055,0.944519,0.595493,-0.196856,-0.766815,-0.136522,-0.021655,0.059649,-0.492552,-0.002571,0.021269,0.076861,-0.022997,0.125899,0.057078
1403637134653318912,4.648100,-1.762754,0.942017,0.594930,-0.196881,-0.767248,-0.136506,-0.021325,0.060701,-0.508080,-0.002571,0.021269,0.076861,-0.022997,0.125899,0.057078
1403637134658319104,4.647994,-1.762449,0.939438,0.594350,-0.196891,-0.767694,-0.136514,-0.021152,0.061333,-0.523825,-0.002571,0.021269,0.076861,-0.022997,0.125899,0.057078
1403637134663319040,4.647889,-1.762142,0.936779,0.593750,-0.196873,-0.768159,-0.136544,-0.021120,0.061630,-0.539624,-0.002571,0.021269,0.076861,-0.022997,0.125899,0.057078
1403637134668318976,4.647783,-1.761833,0.934041,0.593123,-0.196827,-0.768646,-0.136591,-0.021265,0.061843,-0.555396,-0.002571,0.021269,0.076861,-0.022997,0.125899,0.057078
1403637134673319168,4.647676,-1.761523,0.931225,0.592463,-0.196757,-0.769163,-0.136654,-0.021527,0.062146,-0.570984,-0.002571,0.021269,0.076861,-0.022997,0.125899,0.057078
1403637134678319104,4.647567,-1.761211,0.928332,0.591771,-0.196660,-0.769707,-0.136727,-0.021975,0.062511,-0.586207,-0.002571,0.021269,0.076861,-0.022997,0.125899,0.057078
1403637134683319040,4.647455,-1.760898,0.925365,0.591052,-0.196541,-0.770278,-0.136800,-0.022837,0.062691,-0.600764,-0.002571,0.021269,0.076861,-0.022997,0.125899,0.057078
1403637134688318976,4.647338,-1.760586,0.922328,0.590310,-0.196409,-0.770871,-0.136855,-0.024009,0.062393,-0.613953,-0.002571,0.021269,0.076861,-0.022997,0.125899,0.057078
1403637134693319168,4.647214,-1.760276,0.919229,0.589554,-0.196269,-0.771482,-0.136873,-0.025299,0.061564,-0.625656,-0.002571,0.021269,0.076861,-0.022997,0.125899,0.057078
1403637134698318848,4.647085,-1.759971,0.916074,0.588795,-0.196133,-0.772102,-0.136843,-0.026667,0.060198,-0.636264,-0.002571,0.021269,0.076861,-0.022997,0.125899,0.057078
1403637134703319040,4.646947,-1.759675,0.912868,0.588043,-0.196009,-0.772727,-0.136735,-0.028172,0.058367,-0.646097,-0.002571,0.021269,0.076861,-0.022997,0.125899,0.057078
1403637134708318976,4.646803,-1.759388,0.909615,0.587305,-0.195909,-0.773351,-0.136521,-0.029523,0.056289,-0.655498,-0.002571,0.021269,0.076861,-0.022997,0.125899,0.057078
1403637134713319168,4.646654,-1.759112,0.906315,0.586580,-0.195846,-0.773973,-0.136205,-0.030194,0.054320,-0.664431,-0.002571,0.021269,0.076861,-0.022997,0.125899,0.057078
1403637134718318848,4.646503,-1.758844,0.902972,0.585854,-0.195822,-0.774600,-0.135806,-0.030100,0.052748,-0.672851,-0.002571,0.021269,0.076861,-0.022997,0.125899,0.057078
1403637134723319040,4.646354,-1.758583,0.899587,0.585119,-0.195829,-0.775234,-0.135351,-0.029564,0.051609,-0.680903,-0.002571,0.021269,0.076861,-0.022997,0.125899,0.057078
1403637134728318976,4.646209,-1.758328,0.896164,0.584373,-0.195849,-0.775875,-0.134875,-0.028582,0.050515,-0.688484,-0.002571,0.021269,0.076861,-0.022997,0.125899,0.057078
1403637134733319168,4.646070,-1.758078,0.892703,0.583607,-0.195861,-0.776530,-0.134406,-0.026985,0.049349,-0.695870,-0.002571,0.021269,0.076861,-0.022997,0.125899,0.057078
1403637134738318848,4.645940,-1.757834,0.889206,0.582819,-0.195857,-0.777201,-0.133963,-0.025005,0.048370,-0.703050,-0.002571,0.021269,0.076861,-0.022997,0.125899,0.057078
1403637134743319040,4.645820,-1.757595,0.885672,0.582003,-0.195824,-0.777889,-0.133567,-0.022839,0.047301,-0.710223,-0.002571,0.021269,0.076861,-0.022997,0.125899,0.057078
1403637134748318976,4.645711,-1.757362,0.882103,0.581151,-0.195756,-0.778601,-0.133233,-0.020702,0.045925,-0.717513,-0.002571,0.021269,0.076861,-0.022997,0.125899,0.057078
1403637134753318912,4.645612,-1.757137,0.878498,0.580255,-0.195656,-0.779344,-0.132948,-0.018902,0.043988,-0.724470,-0.002571,0.021269,0.076861,-0.022997,0.125899,0.057078
1403637134758318848,4.645522,-1.756923,0.874860,0.579322,-0.195527,-0.780115,-0.132685,-0.017384,0.041483,-0.730926,-0.002571,0.021269,0.076861,-0.022997,0.125899,0.057078
1403637134763319040,4.645437,-1.756723,0.871190,0.578372,-0.195383,-0.780904,-0.132405,-0.016370,0.038659,-0.737001,-0.002571,0.021269,0.076861,-0.022997,0.125899,0.057078
1403637134768318976,4.645357,-1.756537,0.867491,0.577413,-0.195250,-0.781703,-0.132079,-0.015906,0.035681,-0.742541,-0.002571,0.021269,0.076861,-0.022997,0.125899,0.057078
1403637134773318912,4.645277,-1.756366,0.863765,0.576448,-0.195149,-0.782507,-0.131691,-0.015767,0.032758,-0.747690,-0.002571,0.021269,0.076861,-0.022997,0.125899,0.057078
1403637134778318848,4.645198,-1.756209,0.860016,0.575488,-0.195099,-0.783305,-0.131227,-0.015820,0.029905,-0.752005,-0.002571,0.021269,0.076861,-0.022997,0.125899,0.057078
1403637134783319040,4.645119,-1.756067,0.856248,0.574547,-0.195112,-0.784084,-0.130683,-0.015813,0.026938,-0.755388,-0.002571,0.021269,0.076861,-0.022997,0.125899,0.057078
1403637134788319232,4.645041,-1.755940,0.852464,0.573628,-0.195185,-0.784842,-0.130065,-0.015365,0.023947,-0.757850,-0.002571,0.021269,0.076861,-0.022997,0.125899,0.057078
1403637134793318912,4.644967,-1.755828,0.848671,0.572733,-0.195300,-0.785578,-0.129402,-0.014229,0.021041,-0.759595,-0.002571,0.021269,0.076861,-0.022997,0.125899,0.057078
1403637134798319104,4.644901,-1.755730,0.844868,0.571857,-0.195447,-0.786292,-0.128718,-0.012386,0.018199,-0.761428,-0.002571,0.021269,0.076861,-0.022997,0.125899,0.057078
1403637134803319040,4.644845,-1.755645,0.841055,0.570977,-0.195628,-0.786999,-0.128035,-0.009808,0.015792,-0.763701,-0.002571,0.021269,0.076861,-0.022997,0.125899,0.057078
1403637134808318976,4.644804,-1.755570,0.837231,0.570066,-0.195831,-0.787716,-0.127379,-0.006559,0.014135,-0.766141,-0.002571,0.021269,0.076861,-0.022997,0.125899,0.057078
1403637134813318912,4.644781,-1.755502,0.833394,0.569107,-0.196047,-0.788456,-0.126764,-0.002937,0.012994,-0.768468,-0.002571,0.021269,0.076861,-0.022997,0.125899,0.057078
1403637134818319104,4.644775,-1.755439,0.829548,0.568090,-0.196265,-0.789226,-0.126200,0.000468,0.012087,-0.769962,-0.002571,0.021269,0.076861,-0.022997,0.125899,0.057078
1403637134823319040,4.644784,-1.755381,0.825697,0.567034,-0.196470,-0.790017,-0.125691,0.003128,0.011110,-0.770355,-0.002571,0.021269,0.076861,-0.022997,0.125899,0.057078
1403637134828318976,4.644804,-1.755328,0.821847,0.565949,-0.196647,-0.790826,-0.125224,0.004884,0.010134,-0.769858,-0.002571,0.021269,0.076861,-0.022997,0.125899,0.057078
1403637134833318912,4.644830,-1.755280,0.818002,0.564841,-0.196785,-0.791653,-0.124790,0.005849,0.009146,-0.768242,-0.002571,0.021269,0.076861,-0.022997,0.125899,0.057078
1403637134838319104,4.644860,-1.755237,0.814167,0.563735,-0.196888,-0.792483,-0.124373,0.006168,0.007976,-0.765563,-0.002571,0.021269,0.076861,-0.022997,0.125899,0.057078
1403637134843319040,4.644891,-1.755201,0.810348,0.562649,-0.196967,-0.793302,-0.123953,0.006000,0.006369,-0.762183,-0.002571,0.021269,0.076861,-0.022997,0.125899,0.057078
1403637134848318976,4.644920,-1.755175,0.806546,0.561582,-0.197032,-0.794111,-0.123515,0.005678,0.004307,-0.758538,-0.002571,0.021269,0.076861,-0.022997,0.125899,0.057078
1403637134853318912,4.644948,-1.755159,0.802762,0.560539,-0.197098,-0.794907,-0.123035,0.005507,0.001990,-0.755136,-0.002571,0.021269,0.076861,-0.022997,0.125899,0.057078
1403637134858319104,4.644976,-1.755156,0.798994,0.559524,-0.197182,-0.795687,-0.122484,0.005562,-0.000751,-0.751940,-0.002571,0.021269,0.076861,-0.022997,0.125899,0.057078
1403637134863319040,4.645004,-1.755168,0.795242,0.558538,-0.197296,-0.796447,-0.121867,0.005935,-0.004037,-0.748769,-0.002571,0.021269,0.076861,-0.022997,0.125899,0.057078
1403637134868318976,4.645036,-1.755197,0.791507,0.557581,-0.197444,-0.797184,-0.121193,0.006846,-0.007578,-0.745514,-0.002571,0.021269,0.076861,-0.022997,0.125899,0.057078
1403637134873318912,4.645075,-1.755243,0.787788,0.556654,-0.197635,-0.797896,-0.120469,0.008436,-0.010877,-0.741854,-0.002571,0.021269,0.076861,-0.022997,0.125899,0.057078
1403637134878319104,4.645122,-1.755304,0.784089,0.555756,-0.197884,-0.798574,-0.119713,0.010725,-0.013525,-0.737880,-0.002571,0.021269,0.076861,-0.022997,0.125899,0.057078
1403637134883318784,4.645183,-1.755376,0.780409,0.554884,-0.198197,-0.799220,-0.118940,0.013613,-0.015178,-0.733933,-0.002571,0.021269,0.076861,-0.022997,0.125899,0.057078
1403637134888318976,4.645259,-1.755454,0.776750,0.554026,-0.198581,-0.799834,-0.118176,0.016630,-0.016000,-0.729896,-0.002571,0.021269,0.076861,-0.022997,0.125899,0.057078
1403637134893318912,4.645349,-1.755535,0.773112,0.553170,-0.199020,-0.800425,-0.117454,0.019366,-0.016413,-0.725406,-0.002571,0.021269,0.076861,-0.022997,0.125899,0.057078
1403637134898319104,4.645451,-1.755618,0.769497,0.552312,-0.199482,-0.801000,-0.116789,0.021403,-0.016889,-0.720311,-0.002571,0.021269,0.076861,-0.022997,0.125899,0.057078
1403637134903318784,4.645561,-1.755704,0.765911,0.551455,-0.199937,-0.801565,-0.116189,0.022513,-0.017529,-0.714207,-0.002571,0.021269,0.076861,-0.022997,0.125899,0.057078
1403637134908318976,4.645674,-1.755793,0.762358,0.550611,-0.200361,-0.802118,-0.115652,0.022848,-0.018073,-0.707098,-0.002571,0.021269,0.076861,-0.022997,0.125899,0.057078
1403637134913319168,4.645788,-1.755884,0.758842,0.549791,-0.200738,-0.802656,-0.115169,0.022615,-0.018385,-0.699144,-0.002571,0.021269,0.076861,-0.022997,0.125899,0.057078
1403637134918319104,4.645899,-1.755977,0.755368,0.548996,-0.201075,-0.803181,-0.114726,0.022091,-0.018617,-0.690529,-0.002571,0.021269,0.076861,-0.022997,0.125899,0.057078
1403637134923319040,4.646008,-1.756070,0.751938,0.548228,-0.201378,-0.803689,-0.114308,0.021433,-0.018908,-0.681480,-0.002571,0.021269,0.076861,-0.022997,0.125899,0.057078
1403637134928318976,4.646113,-1.756166,0.748553,0.547502,-0.201649,-0.804176,-0.113891,0.020621,-0.019429,-0.672454,-0.002571,0.021269,0.076861,-0.022997,0.125899,0.057078
1403637134933319168,4.646214,-1.756265,0.745212,0.546813,-0.201891,-0.804646,-0.113454,0.019754,-0.020264,-0.663753,-0.002571,0.021269,0.076861,-0.022997,0.125899,0.057078
1403637134938318848,4.646311,-1.756370,0.741914,0.546154,-0.202115,-0.805103,-0.112987,0.019004,-0.021556,-0.655619,-0.002571,0.021269,0.076861,-0.022997,0.125899,0.057078
1403637134943319040,4.646405,-1.756482,0.738656,0.545526,-0.202333,-0.805545,-0.112484,0.018446,-0.023311,-0.647404,-0.002571,0.021269,0.076861,-0.022997,0.125899,0.057078
1403637134948318976,4.646497,-1.756604,0.735441,0.544946,-0.202554,-0.805959,-0.111939,0.018324,-0.025431,-0.638936,-0.002571,0.021269,0.076861,-0.022997,0.125899,0.057078
1403637134953319168,4.646590,-1.756737,0.732267,0.544427,-0.202785,-0.806334,-0.111349,0.018783,-0.027806,-0.630342,-0.002571,0.021269,0.076861,-0.022997,0.125899,0.057078
1403637134958318848,4.646686,-1.756882,0.729137,0.543968,-0.203044,-0.806666,-0.110717,0.019797,-0.030191,-0.621775,-0.002571,0.021269,0.076861,-0.022997,0.125899,0.057078
1403637134963319040,4.646789,-1.757038,0.726049,0.543569,-0.203329,-0.806953,-0.110061,0.021258,-0.032219,-0.613556,-0.002571,0.021269,0.076861,-0.022997,0.125899,0.057078
1403637134968318976,4.646899,-1.757203,0.723002,0.543217,-0.203625,-0.807205,-0.109407,0.022979,-0.033639,-0.605325,-0.002571,0.021269,0.076861,-0.022997,0.125899,0.057078
1403637134973319168,4.647019,-1.757373,0.719997,0.542888,-0.203923,-0.807436,-0.108780,0.024857,-0.034484,-0.596515,-0.002571,0.021269,0.076861,-0.022997,0.125899,0.057078
1403637134978318848,4.647148,-1.757547,0.717038,0.542577,-0.204214,-0.807649,-0.108202,0.026698,-0.034926,-0.586982,-0.002571,0.021269,0.076861,-0.022997,0.125899,0.057078
1403637134983319040,4.647285,-1.757721,0.714129,0.542286,-0.204486,-0.807846,-0.107684,0.028176,-0.034838,-0.576894,-0.002571,0.021269,0.076861,-0.022997,0.125899,0.057078
1403637134988318976,4.647428,-1.757893,0.711270,0.542006,-0.204727,-0.808033,-0.107231,0.029238,-0.033971,-0.566668,-0.002571,0.021269,0.076861,-0.022997,0.125899,0.057078
1403637134993318912,4.647576,-1.758059,0.708462,0.541722,-0.204944,-0.808219,-0.106848,0.029731,-0.032464,-0.556325,-0.002571,0.021269,0.076861,-0.022997,0.125899,0.057078
1403637134998318848,4.647724,-1.758217,0.705708,0.541436,-0.205134,-0.808404,-0.106536,0.029388,-0.030676,-0.545503,-0.002571,0.021269,0.076861,-0.022997,0.125899,0.057078
1403637135003319040,4.647868,-1.758367,0.703009,0.541163,-0.205291,-0.808582,-0.106269,0.028329,-0.029148,-0.534056,-0.002571,0.021269,0.076861,-0.022997,0.125899,0.057078
1403637135008318976,4.648006,-1.758510,0.700368,0.540911,-0.205423,-0.808749,-0.106031,0.026705,-0.028137,-0.522293,-0.002571,0.021269,0.076861,-0.022997,0.125899,0.057078
1403637135013318912,4.648135,-1.758649,0.697785,0.540677,-0.205540,-0.808905,-0.105800,0.024914,-0.027489,-0.510798,-0.002571,0.021269,0.076861,-0.022997,0.125899,0.057078
1403637135018318848,4.648255,-1.758785,0.695258,0.540464,-0.205651,-0.809053,-0.105545,0.023288,-0.027096,-0.499945,-0.002571,0.021269,0.076861,-0.022997,0.125899,0.057078
1403637135023319040,4.648368,-1.758920,0.692784,0.540270,-0.205776,-0.809190,-0.105243,0.021796,-0.026880,-0.489585,-0.002571,0.021269,0.076861,-0.022997,0.125899,0.057078
1403637135028318976,4.648474,-1.759054,0.690362,0.540089,-0.205923,-0.809319,-0.104897,0.020615,-0.026833,-0.479302,-0.002571,0.021269,0.076861,-0.022997,0.125899,0.057078
1403637135033318912,4.648575,-1.759189,0.687992,0.539916,-0.206094,-0.809440,-0.104516,0.019847,-0.026787,-0.468985,-0.002571,0.021269,0.076861,-0.022997,0.125899,0.057078
1403637135038319104,4.648673,-1.759322,0.685673,0.539755,-0.206282,-0.809551,-0.104117,0.019368,-0.026657,-0.458344,-0.002571,0.021269,0.076861,-0.022997,0.125899,0.057078
1403637135043319040,4.648769,-1.759455,0.683409,0.539611,-0.206474,-0.809649,-0.103718,0.019197,-0.026627,-0.447283,-0.002571,0.021269,0.076861,-0.022997,0.125899,0.057078
1403637135048318976,4.648866,-1.759588,0.681201,0.539489,-0.206661,-0.809732,-0.103335,0.019418,-0.026512,-0.435840,-0.002571,0.021269,0.076861,-0.022997,0.125899,0.057078
1403637135053318912,4.648965,-1.759720,0.679051,0.539381,-0.206834,-0.809805,-0.102984,0.020034,-0.026113,-0.424442,-0.002571,0.021269,0.076861,-0.022997,0.125899,0.057078
1403637135058319104,4.649067,-1.759848,0.676956,0.539272,-0.206988,-0.809877,-0.102680,0.020933,-0.025231,-0.413270,-0.002571,0.021269,0.076861,-0.022997,0.125899,0.057078
1403637135063319040,4.649174,-1.759971,0.674917,0.539156,-0.207123,-0.809952,-0.102427,0.022014,-0.023976,-0.402579,-0.002571,0.021269,0.076861,-0.022997,0.125899,0.057078
1403637135068318976,4.649287,-1.760088,0.672929,0.539022,-0.207226,-0.810039,-0.102233,0.023198,-0.022745,-0.392592,-0.002571,0.021269,0.076861,-0.022997,0.125899,0.057078
1403637135073318912,4.649406,-1.760199,0.670990,0.538867,-0.207295,-0.810141,-0.102102,0.024200,-0.021766,-0.382889,-0.002571,0.021269,0.076861,-0.022997,0.125899,0.057078
1403637135078319104,4.649529,-1.760306,0.669100,0.538700,-0.207323,-0.810254,-0.102026,0.024887,-0.020959,-0.373111,-0.002571,0.021269,0.076861,-0.022997,0.125899,0.057078
1403637135083319040,4.649654,-1.760409,0.667259,0.538524,-0.207303,-0.810380,-0.101996,0.025315,-0.020257,-0.363415,-0.002571,0.021269,0.076861,-0.022997,0.125899,0.057078
1403637135088318976,4.649781,-1.760509,0.665466,0.538337,-0.207246,-0.810519,-0.101998,0.025533,-0.019615,-0.353656,-0.002571,0.021269,0.076861,-0.022997,0.125899,0.057078
1403637135093318912,4.649909,-1.760606,0.663722,0.538146,-0.207166,-0.810664,-0.102015,0.025686,-0.019162,-0.343955,-0.002571,0.021269,0.076861,-0.022997,0.125899,0.057078
1403637135098319104,4.650038,-1.760701,0.662026,0.537941,-0.207069,-0.810822,-0.102039,0.025745,-0.019029,-0.334376,-0.002571,0.021269,0.076861,-0.022997,0.125899,0.057078
1403637135103319040,4.650166,-1.760797,0.660378,0.537718,-0.206962,-0.810995,-0.102057,0.025559,-0.019201,-0.324756,-0.002571,0.021269,0.076861,-0.022997,0.125899,0.057078
1403637135108318976,4.650293,-1.760894,0.658780,0.537477,-0.206858,-0.811182,-0.102053,0.025319,-0.019555,-0.314560,-0.002571,0.021269,0.076861,-0.022997,0.125899,0.057078
1403637135113318912,4.650419,-1.760993,0.657235,0.537218,-0.206767,-0.811381,-0.102026,0.025099,-0.019993,-0.303497,-0.002571,0.021269,0.076861,-0.022997,0.125899,0.057078
1403637135118319104,4.650544,-1.761093,0.655748,0.536950,-0.206687,-0.811583,-0.101980,0.024802,-0.020327,-0.291196,-0.002571,0.021269,0.076861,-0.022997,0.125899,0.057078
1403637135123318784,4.650667,-1.761195,0.654326,0.536684,-0.206613,-0.811786,-0.101916,0.024317,-0.020525,-0.277707,-0.002571,0.021269,0.076861,-0.022997,0.125899,0.057078
1403637135128318976,4.650787,-1.761298,0.652973,0.536422,-0.206549,-0.811986,-0.101837,0.023784,-0.020573,-0.263562,-0.002571,0.021269,0.076861,-0.022997,0.125899,0.057078
1403637135133318912,4.650905,-1.761400,0.651691,0.536159,-0.206496,-0.812184,-0.101751,0.023432,-0.020293,-0.249212,-0.002571,0.021269,0.076861,-0.022997,0.125899,0.057078
1403637135138319104,4.654496,-1.757394,0.647059,0.535866,-0.206423,-0.812339,-0.101693,0.038921,-0.009753,-0.241118,-0.002571,0.021269,0.076861,-0.022996,0.125901,0.057078
1403637135143318784,4.654691,-1.757441,0.645889,0.535582,-0.206392,-0.812543,-0.101630,0.038893,-0.008874,-0.226763,-0.002571,0.021269,0.076861,-0.022996,0.125901,0.057078
1403637135148318976,4.654885,-1.757483,0.644791,0.535272,-0.206357,-0.812759,-0.101602,0.038690,-0.007880,-0.212548,-0.002571,0.021269,0.076861,-0.022996,0.125901,0.057078
1403637135153318912,4.655077,-1.757520,0.643763,0.534937,-0.206299,-0.812994,-0.101611,0.038246,-0.006999,-0.198510,-0.002571,0.021269,0.076861,-0.022996,0.125901,0.057078
1403637135158319104,4.655267,-1.757554,0.642806,0.534577,-0.206222,-0.813246,-0.101644,0.037672,-0.006582,-0.184563,-0.002571,0.021269,0.076861,-0.022996,0.125901,0.057078
1403637135163319040,4.655453,-1.757586,0.641918,0.534192,-0.206130,-0.813517,-0.101692,0.037047,-0.006504,-0.170551,-0.002571,0.021269,0.076861,-0.022996,0.125901,0.057078
1403637135168318976,4.655637,-1.757619,0.641100,0.533782,-0.206019,-0.813806,-0.101755,0.036513,-0.006591,-0.156509,-0.002571,0.021269,0.076861,-0.022996,0.125901,0.057078
1403637135173319168,4.655819,-1.757653,0.640353,0.533341,-0.205889,-0.814118,-0.101834,0.036106,-0.006791,-0.142365,-0.002571,0.021269,0.076861,-0.022996,0.125901,0.057078
1403637135178319104,4.655998,-1.757687,0.639677,0.532861,-0.205748,-0.814458,-0.101920,0.035698,-0.007144,-0.127865,-0.002571,0.021269,0.076861,-0.022996,0.125901,0.057078
1403637135183319040,4.656176,-1.757724,0.639076,0.532335,-0.205609,-0.814827,-0.102005,0.035172,-0.007657,-0.112890,-0.002571,0.021269,0.076861,-0.022996,0.125901,0.057078
1403637135188318976,4.656409,-1.757763,0.638566,0.531771,-0.205475,-0.815218,-0.102073,0.036920,-0.008290,-0.096731,-0.002571,0.021269,0.076861,-0.022996,0.125901,0.057078
1403637135193319168,4.656592,-1.757806,0.638123,0.531182,-0.205360,-0.815628,-0.102105,0.036159,-0.008762,-0.080530,-0.002571,0.021269,0.076861,-0.022996,0.125901,0.057078
1403637135198318848,4.656770,-1.757849,0.637763,0.530566,-0.205271,-0.816053,-0.102093,0.035161,-0.008735,-0.063449,-0.002571,0.021269,0.076861,-0.022996,0.125901,0.057078
1403637135203319040,4.656943,-1.757891,0.637491,0.529928,-0.205201,-0.816491,-0.102044,0.034087,-0.007988,-0.045522,-0.002571,0.021269,0.076861,-0.022996,0.125901,0.057078
1403637135208318976,4.657111,-1.757928,0.637310,0.529278,-0.205148,-0.816934,-0.101981,0.032953,-0.006574,-0.026797,-0.002571,0.021269,0.076861,-0.022996,0.125901,0.057078
1403637135213319168,4.657272,-1.757955,0.637226,0.528617,-0.205105,-0.817380,-0.101927,0.031609,-0.004429,-0.007029,-0.002571,0.021269,0.076861,-0.022996,0.125901,0.057078
1403637135218318848,4.657427,-1.757971,0.637242,0.527946,-0.205064,-0.817828,-0.101900,0.030191,-0.001825,0.013406,-0.002571,0.021269,0.076861,-0.022996,0.125901,0.057078
1403637135223319040,4.657574,-1.757973,0.637360,0.527265,-0.205028,-0.818275,-0.101906,0.028670,0.000765,0.034032,-0.002571,0.021269,0.076861,-0.022996,0.125901,0.057078
1403637135228318976,4.657713,-1.757963,0.637582,0.526583,-0.205004,-0.818717,-0.101935,0.026940,0.003306,0.054587,-0.002571,0.021269,0.076861,-0.022996,0.125901,0.057078
1403637135233319168,4.657843,-1.757941,0.637906,0.525900,-0.204985,-0.819155,-0.101983,0.025161,0.005692,0.075006,-0.002571,0.021269,0.076861,-0.022996,0.125901,0.057078
1403637135238318848,4.658019,-1.757911,0.638358,0.525211,-0.204962,-0.819592,-0.102045,0.025520,0.007481,0.096555,-0.002571,0.021269,0.076861,-0.022996,0.125902,0.057078
1403637135243319040,4.658142,-1.757870,0.638892,0.524525,-0.204947,-0.820027,-0.102111,0.023587,0.009030,0.117102,-0.002571,0.021269,0.076861,-0.022996,0.125902,0.057078
1403637135248318976,4.658255,-1.757822,0.639529,0.523849,-0.204948,-0.820452,-0.102168,0.021627,0.010147,0.137703,-0.002571,0.021269,0.076861,-0.022996,0.125902,0.057078
1403637135253318912,4.658358,-1.757769,0.640270,0.523192,-0.204968,-0.820863,-0.102194,0.019565,0.010859,0.158480,-0.002571,0.021269,0.076861,-0.022996,0.125902,0.057078
1403637135258318848,4.658450,-1.757713,0.641115,0.522559,-0.205016,-0.821255,-0.102192,0.017427,0.011392,0.179543,-0.002571,0.021269,0.076861,-0.022996,0.125902,0.057078
1403637135263319040,4.658532,-1.757655,0.642066,0.521947,-0.205089,-0.821629,-0.102165,0.015332,0.012009,0.200807,-0.002571,0.021269,0.076861,-0.022996,0.125902,0.057078
1403637135268318976,4.658604,-1.757593,0.643124,0.521357,-0.205185,-0.821986,-0.102122,0.013174,0.012871,0.222480,-0.002571,0.021269,0.076861,-0.022996,0.125902,0.057078
1403637135273318912,4.658664,-1.757525,0.644292,0.520795,-0.205294,-0.822322,-0.102064,0.011018,0.014044,0.244640,-0.002571,0.021269,0.076861,-0.022996,0.125902,0.057078
1403637135278318848,4.658714,-1.757451,0.645571,0.520263,-0.205407,-0.822638,-0.102008,0.008905,0.015623,0.267209,-0.002571,0.021269,0.076861,-0.022996,0.125902,0.057078
1403637135283319040,4.658753,-1.757368,0.646965,0.519756,-0.205513,-0.822936,-0.101978,0.006750,0.017531,0.290147,-0.002571,0.021269,0.076861,-0.022996,0.125902,0.057078
1403637135288319232,4.658782,-1.757276,0.648473,0.519294,-0.205606,-0.823204,-0.101980,0.004683,0.019507,0.313233,-0.002571,0.021269,0.076861,-0.022996,0.125902,0.057078
1403637135293318912,4.658800,-1.757173,0.650096,0.518887,-0.205688,-0.823436,-0.102018,0.002717,0.021502,0.336136,-0.002571,0.021269,0.076861,-0.022996,0.125902,0.057078
1403637135298319104,4.658809,-1.757061,0.651833,0.518533,-0.205768,-0.823631,-0.102084,0.000967,0.023438,0.358512,-0.002571,0.021269,0.076861,-0.022996,0.125902,0.057078
1403637135303319040,4.658810,-1.756940,0.653680,0.518230,-0.205853,-0.823791,-0.102161,-0.000606,0.025119,0.380140,-0.002571,0.021269,0.076861,-0.022996,0.125902,0.057078
1403637135308318976,4.658803,-1.756811,0.655633,0.517976,-0.205938,-0.823917,-0.102255,-0.002050,0.026483,0.401127,-0.002571,0.021269,0.076861,-0.022996,0.125902,0.057078
1403637135313318912,4.658790,-1.756676,0.657689,0.517770,-0.206019,-0.824011,-0.102379,-0.003463,0.027501,0.421319,-0.002571,0.021269,0.076861,-0.022996,0.125902,0.057078
1403637135318319104,4.658769,-1.756536,0.659844,0.517610,-0.206099,-0.824073,-0.102530,-0.004941,0.028202,0.440801,-0.002571,0.021269,0.076861,-0.022996,0.125902,0.057078
1403637135323319040,4.658740,-1.756394,0.662096,0.517493,-0.206170,-0.824107,-0.102701,-0.006503,0.028534,0.459758,-0.002571,0.021269,0.076861,-0.022996,0.125902,0.057078
1403637135328318976,4.658703,-1.756252,0.664441,0.517424,-0.206224,-0.824114,-0.102892,-0.008239,0.028541,0.478181,-0.002571,0.021269,0.076861,-0.022996,0.125902,0.057078
1403637135333318912,4.658657,-1.756110,0.666876,0.517405,-0.206268,-0.824089,-0.103094,-0.010141,0.028325,0.495929,-0.002571,0.021269,0.076861,-0.022996,0.125902,0.057078
1403637135338319104,4.658602,-1.755969,0.669398,0.517438,-0.206313,-0.824032,-0.103295,-0.012151,0.027903,0.512974,-0.002571,0.021269,0.076861,-0.022996,0.125902,0.057078
1403637135343319040,4.658536,-1.755831,0.672005,0.517532,-0.206363,-0.823936,-0.103494,-0.014197,0.027439,0.529618,-0.002571,0.021269,0.076861,-0.022996,0.125902,0.057078
1403637135348318976,4.658460,-1.755694,0.674694,0.517685,-0.206408,-0.823803,-0.103698,-0.016197,0.027255,0.546196,-0.002571,0.021269,0.076861,-0.022996,0.125902,0.057078
1403637135353318912,4.658374,-1.755557,0.677466,0.517890,-0.206435,-0.823640,-0.103912,-0.017908,0.027413,0.562745,-0.002571,0.021269,0.076861,-0.022996,0.125902,0.057078
1403637135358319104,4.658281,-1.755418,0.680322,0.518145,-0.206436,-0.823449,-0.104153,-0.019271,0.028188,0.579421,-0.002571,0.021269,0.076861,-0.022996,0.125902,0.057078
1403637135363319040,4.658182,-1.755274,0.683260,0.518438,-0.206413,-0.823235,-0.104433,-0.020580,0.029594,0.595954,-0.002571,0.021269,0.076861,-0.022996,0.125902,0.057078
1403637135368318976,4.658076,-1.755121,0.686281,0.518758,-0.206357,-0.823005,-0.104766,-0.021901,0.031424,0.612210,-0.002571,0.021269,0.076861,-0.022996,0.125902,0.057078
1403637135373318912,4.657963,-1.754959,0.689382,0.519111,-0.206270,-0.822756,-0.105153,-0.023170,0.033409,0.628168,-0.002571,0.021269,0.076861,-0.022996,0.125902,0.057078
1403637135378319104,4.657844,-1.754787,0.692562,0.519502,-0.206161,-0.822481,-0.105580,-0.024408,0.035282,0.643930,-0.002571,0.021269,0.076861,-0.022996,0.125902,0.057078
1403637135383318784,4.657719,-1.754607,0.695820,0.519940,-0.206031,-0.822178,-0.106045,-0.025563,0.036733,0.659320,-0.002571,0.021269,0.076861,-0.022996,0.125902,0.057078
1403637135388318976,4.657588,-1.754421,0.699153,0.520432,-0.205889,-0.821839,-0.106533,-0.026692,0.037861,0.673990,-0.002571,0.021269,0.076861,-0.022996,0.125902,0.057078
1403637135393318912,4.657453,-1.754229,0.702557,0.520988,-0.205734,-0.821461,-0.107036,-0.027677,0.038799,0.687566,-0.002571,0.021269,0.076861,-0.022996,0.125902,0.057078
1403637135398319104,4.657312,-1.754034,0.706025,0.521596,-0.205563,-0.821052,-0.107541,-0.028437,0.039356,0.699739,-0.002571,0.021269,0.076861,-0.022996,0.125902,0.057078
1403637135403318784,4.657168,-1.753837,0.709552,0.522237,-0.205393,-0.820622,-0.108038,-0.029163,0.039551,0.710743,-0.002571,0.021269,0.076861,-0.022996,0.125902,0.057078
1403637135408318976,4.657021,-1.753639,0.713131,0.522910,-0.205225,-0.820172,-0.108528,-0.029823,0.039665,0.721063,-0.002571,0.021269,0.076861,-0.022996,0.125902,0.057078
1403637135413319168,4.656871,-1.753440,0.716761,0.523613,-0.205050,-0.819702,-0.109023,-0.030170,0.039858,0.730896,-0.002571,0.021269,0.076861,-0.022996,0.125902,0.057078
1403637135418319104,4.656719,-1.753240,0.720440,0.524339,-0.204861,-0.819217,-0.109539,-0.030407,0.040108,0.740525,-0.002571,0.021269,0.076861,-0.022996,0.125902,0.057078
1403637135423319040,4.656566,-1.753039,0.724166,0.525089,-0.204651,-0.818716,-0.110082,-0.030762,0.040417,0.750105,-0.002571,0.021269,0.076861,-0.022996,0.125902,0.057078
1403637135428318976,4.656412,-1.752836,0.727941,0.525856,-0.204421,-0.818205,-0.110657,-0.031136,0.040717,0.759824,-0.002571,0.021269,0.076861,-0.022996,0.125902,0.057078
1403637135433319168,4.656255,-1.752631,0.731765,0.526636,-0.204171,-0.817684,-0.111264,-0.031548,0.041105,0.769721,-0.002571,0.021269,0.076861,-0.022996,0.125902,0.057078
1403637135438318848,4.656096,-1.752424,0.735638,0.527428,-0.203908,-0.817153,-0.111903,-0.032161,0.041760,0.779416,-0.002571,0.021269,0.076861,-0.022996,0.125902,0.057078
1403637135443319040,4.655933,-1.752213,0.739559,0.528222,-0.203634,-0.816616,-0.112576,-0.032915,0.042629,0.788990,-0.002571,0.021269,0.076861,-0.022996,0.125902,0.057078
1403637135448318976,4.655766,-1.751998,0.743528,0.529015,-0.203348,-0.816077,-0.113279,-0.033764,0.043447,0.798884,-0.002571,0.021269,0.076861,-0.022996,0.125902,0.057078
1403637135453319168,4.655595,-1.751779,0.747549,0.529817,-0.203056,-0.815529,-0.114009,-0.034664,0.043940,0.809202,-0.002571,0.021269,0.076861,-0.022996,0.125902,0.057078
1403637135458318848,4.655420,-1.751559,0.751621,0.530641,-0.202761,-0.814961,-0.114768,-0.035555,0.044046,0.819821,-0.002571,0.021269,0.076861,-0.022996,0.125902,0.057078
1403637135463319040,4.655240,-1.751340,0.755746,0.531495,-0.202456,-0.814371,-0.115548,-0.036313,0.043911,0.830148,-0.002571,0.021269,0.076861,-0.022996,0.125902,0.057078
1403637135468318976,4.655056,-1.751121,0.759920,0.532377,-0.202146,-0.813762,-0.116328,-0.037118,0.043467,0.839431,-0.002571,0.021269,0.076861,-0.022996,0.125902,0.057078
1403637135473319168,4.654869,-1.750906,0.764138,0.533285,-0.201842,-0.813134,-0.117094,-0.037929,0.042715,0.847531,-0.002571,0.021269,0.076861,-0.022996,0.125902,0.057078
1403637135478318848,4.654678,-1.750694,0.768392,0.534216,-0.201549,-0.812489,-0.117836,-0.038498,0.041778,0.854113,-0.002571,0.021269,0.076861,-0.022996,0.125902,0.057078
1403637135483319040,4.654484,-1.750489,0.772675,0.535162,-0.201276,-0.811832,-0.118545,-0.039007,0.040508,0.859232,-0.002571,0.021269,0.076861,-0.022996,0.125902,0.057078
1403637135488318976,4.654288,-1.750290,0.776980,0.536119,-0.201015,-0.811170,-0.119203,-0.039492,0.038859,0.862843,-0.002571,0.021269,0.076861,-0.022996,0.125902,0.057078
1403637135493318912,4.654089,-1.750100,0.781300,0.537084,-0.200754,-0.810507,-0.119815,-0.039875,0.037221,0.865225,-0.002571,0.021269,0.076861,-0.022996,0.125902,0.057078
1403637135498318848,4.653890,-1.749918,0.785631,0.538053,-0.200492,-0.809843,-0.120402,-0.040022,0.035751,0.867022,-0.002571,0.021269,0.076861,-0.022996,0.125902,0.057078
1403637135503319040,4.653690,-1.749742,0.789970,0.539030,-0.200221,-0.809176,-0.120973,-0.039894,0.034439,0.868451,-0.002571,0.021269,0.076861,-0.022996,0.125902,0.057078
1403637135508318976,4.653491,-1.749573,0.794315,0.540009,-0.199937,-0.808510,-0.121532,-0.039590,0.033129,0.869553,-0.002571,0.021269,0.076861,-0.022996,0.125902,0.057078
1403637135513318912,4.653294,-1.749410,0.798665,0.540980,-0.199652,-0.807849,-0.122085,-0.039429,0.032039,0.870655,-0.002571,0.021269,0.076861,-0.022996,0.125902,0.057078
1403637135518318848,4.653096,-1.749252,0.803021,0.541933,-0.199385,-0.807195,-0.122630,-0.039515,0.031432,0.871888,-0.002571,0.021269,0.076861,-0.022996,0.125902,0.057078
1403637135523319040,4.652898,-1.749094,0.807385,0.542859,-0.199139,-0.806550,-0.123178,-0.039580,0.031477,0.873606,-0.002571,0.021269,0.076861,-0.022996,0.125902,0.057078
1403637135528318976,4.652700,-1.748935,0.811759,0.543751,-0.198905,-0.805921,-0.123746,-0.039704,0.032173,0.876091,-0.002571,0.021269,0.076861,-0.022996,0.125902,0.057078
1403637135533318912,4.652501,-1.748772,0.816148,0.544615,-0.198672,-0.805304,-0.124346,-0.040011,0.033211,0.879277,-0.002571,0.021269,0.076861,-0.022996,0.125902,0.057078
1403637135538319104,4.652300,-1.748603,0.820553,0.545460,-0.198433,-0.804691,-0.124993,-0.040479,0.034292,0.882789,-0.002571,0.021269,0.076861,-0.022996,0.125902,0.057078
1403637135543319040,4.652096,-1.748429,0.824975,0.546288,-0.198190,-0.804082,-0.125688,-0.041166,0.035250,0.886136,-0.002571,0.021269,0.076861,-0.022996,0.125902,0.057078
1403637135548318976,4.651888,-1.748251,0.829413,0.547104,-0.197941,-0.803474,-0.126425,-0.041906,0.036006,0.888687,-0.002571,0.021269,0.076861,-0.022996,0.125902,0.057078
1403637135553318912,4.651677,-1.748070,0.833860,0.547912,-0.197689,-0.802865,-0.127189,-0.042490,0.036311,0.890234,-0.002571,0.021269,0.076861,-0.022996,0.125902,0.057078
1403637135558319104,4.651463,-1.747889,0.838312,0.548706,-0.197453,-0.802259,-0.127962,-0.042922,0.036141,0.890518,-0.002571,0.021269,0.076861,-0.022996,0.125902,0.057078
1403637135563319040,4.651248,-1.747710,0.842761,0.549488,-0.197242,-0.801654,-0.128729,-0.043295,0.035591,0.889335,-0.002571,0.021269,0.076861,-0.022996,0.125902,0.057078
1403637135568318976,4.651031,-1.747535,0.847202,0.550259,-0.197058,-0.801050,-0.129483,-0.043571,0.034490,0.886996,-0.002571,0.021269,0.076861,-0.022996,0.125902,0.057078
1403637135573318912,4.650812,-1.747366,0.851630,0.551017,-0.196898,-0.800449,-0.130218,-0.043770,0.032856,0.884061,-0.002571,0.021269,0.076861,-0.022996,0.125902,0.057078
1403637135578319104,4.650593,-1.747207,0.856042,0.551774,-0.196761,-0.799848,-0.130921,-0.044024,0.030905,0.880905,-0.002571,0.021269,0.076861,-0.022996,0.125902,0.057078
1403637135583319040,4.650372,-1.747058,0.860438,0.552540,-0.196656,-0.799237,-0.131583,-0.044269,0.028793,0.877565,-0.002571,0.021269,0.076861,-0.022996,0.125902,0.057078
1403637135588318976,4.650150,-1.746919,0.864818,0.553310,-0.196588,-0.798619,-0.132204,-0.044449,0.026796,0.874121,-0.002571,0.021269,0.076861,-0.022996,0.125902,0.057078
1403637135593318912,4.649927,-1.746789,0.869180,0.554081,-0.196561,-0.797996,-0.132780,-0.044780,0.025149,0.870787,-0.002571,0.021269,0.076861,-0.022996,0.125902,0.057078
1403637135598319104,4.649702,-1.746666,0.873526,0.554853,-0.196574,-0.797368,-0.133317,-0.045395,0.023884,0.867864,-0.002571,0.021269,0.076861,-0.022996,0.125902,0.057078
1403637135603319040,4.649473,-1.746548,0.877860,0.555619,-0.196616,-0.796737,-0.133842,-0.046211,0.023239,0.865515,-0.002571,0.021269,0.076861,-0.022996,0.125902,0.057078
1403637135608318976,4.649240,-1.746432,0.882183,0.556381,-0.196668,-0.796102,-0.134375,-0.047030,0.023342,0.863781,-0.002571,0.021269,0.076861,-0.022996,0.125902,0.057078
1403637135613318912,4.649003,-1.746314,0.886499,0.557139,-0.196718,-0.795466,-0.134935,-0.047832,0.023883,0.862595,-0.002571,0.021269,0.076861,-0.022996,0.125902,0.057078
1403637135618319104,4.648762,-1.746193,0.890810,0.557892,-0.196754,-0.794828,-0.135536,-0.048487,0.024558,0.861680,-0.002571,0.021269,0.076861,-0.022996,0.125902,0.057078
1403637135623318784,4.648518,-1.746069,0.895115,0.558652,-0.196772,-0.794181,-0.136176,-0.048853,0.025100,0.860475,-0.002571,0.021269,0.076861,-0.022996,0.125902,0.057078
1403637135628318976,4.648274,-1.745943,0.899413,0.559419,-0.196775,-0.793526,-0.136843,-0.048960,0.025221,0.858562,-0.002571,0.021269,0.076861,-0.022996,0.125902,0.057078
1403637135633318912,4.648029,-1.745818,0.903698,0.560190,-0.196777,-0.792866,-0.137517,-0.048935,0.024846,0.855479,-0.002571,0.021269,0.076861,-0.022996,0.125902,0.057078
1403637135638319104,4.647785,-1.745695,0.907964,0.560970,-0.196791,-0.792199,-0.138168,-0.048753,0.024056,0.851133,-0.002571,0.021269,0.076861,-0.022996,0.125902,0.057078
1403637135643318784,4.647542,-1.745578,0.912206,0.561762,-0.196818,-0.791525,-0.138775,-0.048308,0.022776,0.845571,-0.002571,0.021269,0.076861,-0.022996,0.125902,0.057078
1403637135648318976,4.647302,-1.745468,0.916418,0.562565,-0.196857,-0.790848,-0.139330,-0.047834,0.021183,0.839233,-0.002571,0.021269,0.076861,-0.022996,0.125902,0.057078
1403637135653318912,4.647064,-1.745367,0.920596,0.563379,-0.196920,-0.790166,-0.139828,-0.047299,0.019288,0.832104,-0.002571,0.021269,0.076861,-0.022996,0.125902,0.057078
1403637135658319104,4.646830,-1.745276,0.924737,0.564204,-0.196999,-0.789480,-0.140265,-0.046511,0.017135,0.824173,-0.002571,0.021269,0.076861,-0.022996,0.125902,0.057078
1403637135663319040,4.646599,-1.745196,0.928837,0.565041,-0.197083,-0.788792,-0.140656,-0.045742,0.014895,0.815676,-0.002571,0.021269,0.076861,-0.022996,0.125902,0.057078
1403637135668318976,4.646372,-1.745127,0.932893,0.565885,-0.197154,-0.788107,-0.141006,-0.045138,0.012812,0.806812,-0.002571,0.021269,0.076861,-0.022996,0.125902,0.057078
1403637135673319168,4.646148,-1.745068,0.936904,0.566729,-0.197207,-0.787432,-0.141319,-0.044514,0.010906,0.797569,-0.002571,0.021269,0.076861,-0.022996,0.125902,0.057078
1403637135678319104,4.645927,-1.745018,0.940868,0.567565,-0.197248,-0.786768,-0.141606,-0.043837,0.008929,0.788085,-0.002571,0.021269,0.076861,-0.022996,0.125902,0.057078
1403637135683319040,4.645709,-1.744978,0.944784,0.568401,-0.197293,-0.786109,-0.141854,-0.043098,0.006971,0.778390,-0.002571,0.021269,0.076861,-0.022996,0.125902,0.057078
1403637135688318976,4.645496,-1.744948,0.948652,0.569236,-0.197361,-0.785453,-0.142051,-0.042273,0.005023,0.768731,-0.002571,0.021269,0.076861,-0.022996,0.125902,0.057078
1403637135693319168,4.645286,-1.744928,0.952472,0.570065,-0.197455,-0.784802,-0.142197,-0.041599,0.003054,0.759367,-0.002571,0.021269,0.076861,-0.022996,0.125902,0.057078
1403637135698318848,4.645079,-1.744917,0.956247,0.570884,-0.197573,-0.784160,-0.142295,-0.041201,0.001417,0.750490,-0.002571,0.021269,0.076861,-0.022996,0.125902,0.057078
1403637135703319040,4.644874,-1.744913,0.959978,0.571695,-0.197703,-0.783525,-0.142356,-0.040882,0.000194,0.741948,-0.002571,0.021269,0.076861,-0.022996,0.125902,0.057078
1403637135708318976,4.644670,-1.744914,0.963667,0.572493,-0.197837,-0.782902,-0.142394,-0.040587,-0.000642,0.733486,-0.002571,0.021269,0.076861,-0.022996,0.125902,0.057078
1403637135713319168,4.644469,-1.744918,0.967312,0.573283,-0.197970,-0.782287,-0.142419,-0.040080,-0.001172,0.724796,-0.002571,0.021269,0.076861,-0.022996,0.125902,0.057078
1403637135718318848,4.644271,-1.744925,0.970913,0.574070,-0.198107,-0.781672,-0.142437,-0.039178,-0.001401,0.715629,-0.002571,0.021269,0.076861,-0.022996,0.125902,0.057078
1403637135723319040,4.644078,-1.744932,0.974467,0.574852,-0.198253,-0.781059,-0.142448,-0.038051,-0.001402,0.705863,-0.002571,0.021269,0.076861,-0.022996,0.125902,0.057078
1403637135728318976,4.643890,-1.744939,0.977970,0.575624,-0.198408,-0.780449,-0.142457,-0.036932,-0.001446,0.695329,-0.002571,0.021269,0.076861,-0.022996,0.125902,0.057078
1403637135733319168,4.643708,-1.744947,0.981418,0.576384,-0.198572,-0.779846,-0.142461,-0.035799,-0.001707,0.683822,-0.002571,0.021269,0.076861,-0.022996,0.125902,0.057078
1403637135738318848,4.643532,-1.744957,0.984806,0.577129,-0.198741,-0.779254,-0.142453,-0.034728,-0.002194,0.671327,-0.002571,0.021269,0.076861,-0.022996,0.125902,0.057078
1403637135743319040,4.643361,-1.744970,0.988129,0.577866,-0.198915,-0.778668,-0.142431,-0.033721,-0.003019,0.658075,-0.002571,0.021269,0.076861,-0.022996,0.125902,0.057078
1403637135748318976,4.643195,-1.744988,0.991385,0.578600,-0.199089,-0.778087,-0.142387,-0.032669,-0.004382,0.644063,-0.002571,0.021269,0.076861,-0.022996,0.125902,0.057078
1403637135753318912,4.643034,-1.745014,0.994568,0.579337,-0.199255,-0.777511,-0.142309,-0.031631,-0.005924,0.629371,-0.002571,0.021269,0.076861,-0.022996,0.125902,0.057078
1403637135758318848,4.642879,-1.745047,0.997676,0.580081,-0.199416,-0.776937,-0.142190,-0.030446,-0.007131,0.613622,-0.002571,0.021269,0.076861,-0.022996,0.125902,0.057078
1403637135763319040,4.642730,-1.745084,1.000702,0.580815,-0.199581,-0.776375,-0.142038,-0.029159,-0.007957,0.596715,-0.002571,0.021269,0.076861,-0.022996,0.125902,0.057078
1403637135768318976,4.642587,-1.745126,1.003641,0.581522,-0.199754,-0.775833,-0.141864,-0.027933,-0.008541,0.579119,-0.002571,0.021269,0.076861,-0.022996,0.125902,0.057078
1403637135773318912,4.642450,-1.745169,1.006492,0.582204,-0.199936,-0.775310,-0.141669,-0.026896,-0.008902,0.561234,-0.002571,0.021269,0.076861,-0.022996,0.125902,0.057078
1403637135778318848,4.642318,-1.745214,1.009253,0.582864,-0.200124,-0.774805,-0.141458,-0.026109,-0.009142,0.543295,-0.002571,0.021269,0.076861,-0.022996,0.125902,0.057078
1403637135783319040,4.642189,-1.745260,1.011926,0.583502,-0.200310,-0.774318,-0.141231,-0.025300,-0.009007,0.525610,-0.002571,0.021269,0.076861,-0.022996,0.125902,0.057078
1403637135788319232,4.642065,-1.745303,1.014510,0.584123,-0.200485,-0.773847,-0.141001,-0.024389,-0.008147,0.508060,-0.002571,0.021269,0.076861,-0.022996,0.125902,0.057078
1403637135793318912,4.641946,-1.745339,1.017006,0.584720,-0.200648,-0.773393,-0.140790,-0.023176,-0.006303,0.490529,-0.002571,0.021269,0.076861,-0.022996,0.125902,0.057078
1403637135798319104,4.641834,-1.745363,1.019415,0.585285,-0.200798,-0.772958,-0.140616,-0.021636,-0.003466,0.473020,-0.002571,0.021269,0.076861,-0.022996,0.125902,0.057078
1403637135803319040,4.641729,-1.745372,1.021737,0.585810,-0.200935,-0.772547,-0.140497,-0.020179,-0.000206,0.455712,-0.002571,0.021269,0.076861,-0.022996,0.125902,0.057078
1403637135808318976,4.641631,-1.745366,1.023972,0.586296,-0.201061,-0.772157,-0.140432,-0.019014,0.002768,0.438364,-0.002571,0.021269,0.076861,-0.022996,0.125902,0.057078
1403637135813318912,4.641538,-1.745346,1.026120,0.586746,-0.201176,-0.771790,-0.140408,-0.018314,0.005360,0.420909,-0.002571,0.021269,0.076861,-0.022996,0.125902,0.057078
1403637135818319104,4.641447,-1.745314,1.028181,0.587166,-0.201279,-0.771445,-0.140403,-0.018264,0.007247,0.403374,-0.002571,0.021269,0.076861,-0.022996,0.125902,0.057078
1403637135823319040,4.641354,-1.745275,1.030154,0.587568,-0.201377,-0.771115,-0.140396,-0.018721,0.008211,0.385701,-0.002571,0.021269,0.076861,-0.022996,0.125902,0.057078
1403637135828318976,4.641258,-1.745233,1.032038,0.587960,-0.201479,-0.770795,-0.140365,-0.019603,0.008696,0.367907,-0.002571,0.021269,0.076861,-0.022996,0.125902,0.057078
1403637135833318912,4.641157,-1.745189,1.033832,0.588343,-0.201587,-0.770486,-0.140299,-0.020846,0.008875,0.349857,-0.002571,0.021269,0.076861,-0.022996,0.125902,0.057078
1403637135838319104,4.641050,-1.745145,1.035535,0.588716,-0.201710,-0.770188,-0.140198,-0.022218,0.008805,0.331360,-0.002571,0.021269,0.076861,-0.022996,0.125902,0.057078
1403637135843319040,4.640935,-1.745101,1.037145,0.589084,-0.201846,-0.769896,-0.140060,-0.023651,0.008714,0.312658,-0.002571,0.021269,0.076861,-0.022996,0.125902,0.057078
1403637135848318976,4.640813,-1.745058,1.038661,0.589445,-0.201991,-0.769612,-0.139895,-0.025018,0.008695,0.293721,-0.002571,0.021269,0.076861,-0.022996,0.125902,0.057078
1403637135853318912,4.640685,-1.745014,1.040082,0.589791,-0.202144,-0.769340,-0.139709,-0.026138,0.008859,0.274471,-0.002571,0.021269,0.076861,-0.022996,0.125902,0.057078
1403637135858319104,4.640552,-1.744968,1.041405,0.590121,-0.202315,-0.769078,-0.139512,-0.027003,0.009293,0.254788,-0.002571,0.021269,0.076861,-0.022996,0.125902,0.057078
1403637135863319040,4.640416,-1.744920,1.042628,0.590429,-0.202498,-0.768830,-0.139313,-0.027603,0.010081,0.234622,-0.002571,0.021269,0.076861,-0.022996,0.125902,0.057078
1403637135868318976,4.640277,-1.744866,1.043750,0.590713,-0.202681,-0.768597,-0.139130,-0.028129,0.011395,0.213942,-0.002571,0.021269,0.076861,-0.022996,0.125902,0.057078
1403637135873318912,4.640135,-1.744805,1.044767,0.590965,-0.202866,-0.768382,-0.138977,-0.028643,0.013083,0.192845,-0.002571,0.021269,0.076861,-0.022996,0.125902,0.057078
1403637135878319104,4.639991,-1.744735,1.045677,0.591178,-0.203052,-0.768191,-0.138856,-0.028930,0.014983,0.171424,-0.002571,0.021269,0.076861,-0.022996,0.125902,0.057078
1403637135883318784,4.639846,-1.744655,1.046480,0.591353,-0.203241,-0.768021,-0.138778,-0.029026,0.017135,0.149708,-0.002571,0.021269,0.076861,-0.022996,0.125902,0.057078
1403637135888318976,4.639701,-1.744563,1.047174,0.591492,-0.203423,-0.767869,-0.138758,-0.028973,0.019373,0.127692,-0.002571,0.021269,0.076861,-0.022996,0.125902,0.057078
1403637135893318912,4.639556,-1.744461,1.047757,0.591593,-0.203595,-0.767740,-0.138787,-0.028935,0.021415,0.105574,-0.002571,0.021269,0.076861,-0.022996,0.125902,0.057078
1403637135898319104,4.639411,-1.744351,1.048229,0.591655,-0.203761,-0.767637,-0.138847,-0.029219,0.022846,0.083390,-0.002571,0.021269,0.076861,-0.022996,0.125902,0.057078
1403637135903318784,4.639263,-1.744235,1.048591,0.591685,-0.203919,-0.767558,-0.138930,-0.029932,0.023473,0.061381,-0.002571,0.021269,0.076861,-0.022996,0.125902,0.057078
1403637135908318976,4.639111,-1.744118,1.048844,0.591692,-0.204069,-0.767498,-0.139010,-0.030960,0.023445,0.039655,-0.002571,0.021269,0.076861,-0.022996,0.125902,0.057078
1403637135913319168,4.638953,-1.744002,1.048988,0.591678,-0.204216,-0.767461,-0.139059,-0.032133,0.022667,0.018118,-0.002571,0.021269,0.076861,-0.022996,0.125902,0.057078
1403637135918319104,4.638789,-1.743893,1.049026,0.591650,-0.204355,-0.767443,-0.139069,-0.033446,0.021220,-0.002879,-0.002571,0.021269,0.076861,-0.022996,0.125902,0.057078
1403637135923319040,4.638618,-1.743791,1.048960,0.591617,-0.204489,-0.767441,-0.139030,-0.034915,0.019361,-0.023552,-0.002571,0.021269,0.076861,-0.022996,0.125902,0.057078
1403637135928318976,4.638440,-1.743700,1.048791,0.591584,-0.204625,-0.767447,-0.138937,-0.036348,0.017265,-0.043986,-0.002571,0.021269,0.076861,-0.022996,0.125902,0.057078
1403637135933319168,4.638255,-1.743619,1.048522,0.591547,-0.204759,-0.767465,-0.138792,-0.037664,0.015039,-0.063948,-0.002571,0.021269,0.076861,-0.022996,0.125902,0.057078
1403637135938318848,4.644428,-1.741791,1.051623,0.591435,-0.204834,-0.767480,-0.138645,-0.025977,0.022133,-0.077851,-0.002571,0.021269,0.076861,-0.022995,0.125905,0.057077
1403637135943319040,4.644297,-1.741684,1.051185,0.591371,-0.204949,-0.767538,-0.138426,-0.026681,0.020516,-0.097407,-0.002571,0.021269,0.076861,-0.022995,0.125905,0.057077
1403637135948318976,4.644162,-1.741585,1.050650,0.591292,-0.205051,-0.767613,-0.138194,-0.027171,0.019365,-0.116644,-0.002571,0.021269,0.076861,-0.022995,0.125905,0.057077
1403637135953319168,4.644025,-1.741489,1.050019,0.591196,-0.205139,-0.767706,-0.137961,-0.027632,0.018731,-0.135742,-0.002571,0.021269,0.076861,-0.022995,0.125905,0.057077
1403637135958318848,4.643886,-1.741396,1.049293,0.591080,-0.205203,-0.767818,-0.137743,-0.028058,0.018448,-0.154544,-0.002571,0.021269,0.076861,-0.022995,0.125905,0.057077
1403637135963319040,4.643745,-1.741304,1.048474,0.590940,-0.205243,-0.767947,-0.137560,-0.028272,0.018481,-0.173302,-0.002571,0.021269,0.076861,-0.022995,0.125905,0.057077
1403637135968318976,4.643603,-1.741211,1.047560,0.590777,-0.205266,-0.768092,-0.137417,-0.028266,0.018745,-0.192191,-0.002571,0.021269,0.076861,-0.022995,0.125905,0.057077
1403637135973319168,4.643463,-1.741116,1.046551,0.590588,-0.205267,-0.768253,-0.137325,-0.028120,0.019184,-0.211285,-0.002571,0.021269,0.076861,-0.022995,0.125905,0.057077
1403637135978318848,4.643322,-1.741019,1.045446,0.590377,-0.205243,-0.768430,-0.137285,-0.028044,0.019505,-0.230794,-0.002571,0.021269,0.076861,-0.022995,0.125905,0.057077
1403637135983319040,4.643181,-1.740922,1.044242,0.590140,-0.205191,-0.768624,-0.137292,-0.028215,0.019398,-0.250925,-0.002571,0.021269,0.076861,-0.022995,0.125905,0.057077
1403637135988318976,4.643039,-1.740827,1.042935,0.589870,-0.205114,-0.768844,-0.137337,-0.028581,0.018804,-0.271780,-0.002571,0.021269,0.076861,-0.022995,0.125905,0.057077
1403637135993318912,4.642895,-1.740736,1.041523,0.589568,-0.205022,-0.769088,-0.137403,-0.029394,0.017664,-0.292901,-0.002571,0.021269,0.076861,-0.022995,0.125905,0.057077
1403637135998318848,4.642744,-1.740652,1.040006,0.589249,-0.204918,-0.769349,-0.137466,-0.030687,0.015849,-0.313787,-0.002571,0.021269,0.076861,-0.022995,0.125905,0.057077
1403637136003319040,4.642587,-1.740579,1.038386,0.588927,-0.204811,-0.769617,-0.137510,-0.032314,0.013141,-0.334434,-0.002571,0.021269,0.076861,-0.022995,0.125905,0.057077
1403637136008318976,4.642421,-1.740522,1.036663,0.588613,-0.204700,-0.769887,-0.137509,-0.034194,0.009827,-0.354698,-0.002571,0.021269,0.076861,-0.022995,0.125905,0.057077
1403637136013318912,4.642245,-1.740481,1.034839,0.588314,-0.204593,-0.770156,-0.137439,-0.036089,0.006426,-0.374758,-0.002571,0.021269,0.076861,-0.022995,0.125905,0.057077
1403637136018318848,4.642060,-1.740457,1.032916,0.588031,-0.204503,-0.770421,-0.137299,-0.037773,0.003427,-0.394507,-0.002571,0.021269,0.076861,-0.022995,0.125905,0.057077
1403637136023319040,4.641868,-1.740445,1.030895,0.587760,-0.204437,-0.770681,-0.137102,-0.039097,0.001220,-0.413912,-0.002571,0.021269,0.076861,-0.022995,0.125905,0.057077
1403637136028318976,4.641670,-1.740442,1.028779,0.587488,-0.204395,-0.770940,-0.136872,-0.040008,0.000139,-0.432670,-0.002571,0.021269,0.076861,-0.022995,0.125905,0.057077
1403637136033318912,4.641469,-1.740441,1.026571,0.587208,-0.204374,-0.771202,-0.136631,-0.040489,0.000253,-0.450579,-0.002571,0.021269,0.076861,-0.022995,0.125905,0.057077
1403637136038319104,4.641266,-1.740437,1.024275,0.586909,-0.204361,-0.771472,-0.136411,-0.040566,0.001360,-0.467823,-0.002571,0.021269,0.076861,-0.022995,0.125905,0.057077
1403637136043319040,4.641064,-1.740425,1.021894,0.586583,-0.204350,-0.771752,-0.136249,-0.040481,0.003151,-0.484322,-0.002571,0.021269,0.076861,-0.022995,0.125905,0.057077
1403637136048318976,4.640861,-1.740404,1.019433,0.586226,-0.204337,-0.772042,-0.136160,-0.040605,0.005303,-0.500285,-0.002571,0.021269,0.076861,-0.022995,0.125905,0.057077
1403637136053318912,4.640656,-1.740372,1.016892,0.585833,-0.204306,-0.772351,-0.136145,-0.041227,0.007471,-0.515979,-0.002571,0.021269,0.076861,-0.022995,0.125905,0.057077
1403637136058319104,4.640447,-1.740330,1.014274,0.585409,-0.204249,-0.772679,-0.136197,-0.042359,0.009289,-0.531241,-0.002571,0.021269,0.076861,-0.022995,0.125905,0.057077
1403637136063319040,4.640232,-1.740281,1.011580,0.584963,-0.204169,-0.773020,-0.136302,-0.043883,0.010566,-0.546224,-0.002571,0.021269,0.076861,-0.022995,0.125905,0.057077
1403637136068318976,4.640008,-1.740226,1.008812,0.584501,-0.204064,-0.773373,-0.136439,-0.045726,0.011212,-0.560940,-0.002571,0.021269,0.076861,-0.022995,0.125905,0.057077
1403637136073318912,4.639774,-1.740170,1.005972,0.584029,-0.203932,-0.773737,-0.136593,-0.047767,0.011156,-0.575434,-0.002571,0.021269,0.076861,-0.022995,0.125905,0.057077
1403637136078319104,4.639530,-1.740116,1.003058,0.583557,-0.203780,-0.774106,-0.136746,-0.049816,0.010590,-0.589903,-0.002571,0.021269,0.076861,-0.022995,0.125905,0.057077
1403637136083319040,4.639276,-1.740066,1.000072,0.583093,-0.203622,-0.774475,-0.136872,-0.051729,0.009433,-0.604469,-0.002571,0.021269,0.076861,-0.022995,0.125905,0.057077
1403637136088318976,4.639013,-1.740023,0.997013,0.582633,-0.203478,-0.774847,-0.136946,-0.053468,0.007780,-0.619246,-0.002571,0.021269,0.076861,-0.022995,0.125905,0.057077
1403637136093318912,4.638743,-1.739988,0.993880,0.582180,-0.203376,-0.775214,-0.136947,-0.054785,0.006133,-0.634100,-0.002571,0.021269,0.076861,-0.022995,0.125905,0.057077
1403637136098319104,4.638467,-1.739960,0.990673,0.581740,-0.203335,-0.775568,-0.136874,-0.055473,0.004909,-0.648708,-0.002571,0.021269,0.076861,-0.022995,0.125905,0.057077
1403637136103319040,4.638190,-1.739938,0.987394,0.581309,-0.203360,-0.775906,-0.136749,-0.055461,0.004194,-0.662933,-0.002571,0.021269,0.076861,-0.022995,0.125905,0.057077
1403637136108318976,4.637914,-1.739917,0.984045,0.580879,-0.203447,-0.776233,-0.136593,-0.054622,0.003885,-0.676600,-0.002571,0.021269,0.076861,-0.022995,0.125905,0.057077
1403637136113318912,4.637645,-1.739898,0.980629,0.580445,-0.203587,-0.776551,-0.136427,-0.053239,0.003861,-0.689713,-0.002571,0.021269,0.076861,-0.022995,0.125905,0.057077
1403637136118319104,4.637382,-1.739878,0.977148,0.580000,-0.203762,-0.776864,-0.136276,-0.051735,0.004133,-0.702574,-0.002571,0.021269,0.076861,-0.022995,0.125905,0.057077
1403637136123318784,4.637127,-1.739855,0.973604,0.579530,-0.203947,-0.777185,-0.136166,-0.050247,0.005051,-0.715234,-0.002571,0.021269,0.076861,-0.022995,0.125905,0.057077
1403637136128318976,4.636880,-1.739826,0.969997,0.579015,-0.204126,-0.777532,-0.136116,-0.048872,0.006555,-0.727514,-0.002571,0.021269,0.076861,-0.022995,0.125905,0.057077
1403637136133318912,4.636638,-1.739789,0.966330,0.578450,-0.204274,-0.777909,-0.136141,-0.047937,0.008238,-0.739174,-0.002571,0.021269,0.076861,-0.022995,0.125905,0.057077
1403637136138319104,4.636399,-1.739745,0.962607,0.577837,-0.204376,-0.778320,-0.136245,-0.047633,0.009530,-0.749996,-0.002571,0.021269,0.076861,-0.022995,0.125905,0.057077
1403637136143318784,4.636160,-1.739696,0.958833,0.577183,-0.204413,-0.778764,-0.136427,-0.047772,0.010070,-0.759700,-0.002571,0.021269,0.076861,-0.022995,0.125905,0.057077
1403637136148318976,4.635920,-1.739646,0.955013,0.576500,-0.204375,-0.779236,-0.136676,-0.048187,0.009869,-0.768414,-0.002571,0.021269,0.076861,-0.022995,0.125905,0.057077
1403637136153318912,4.635678,-1.739599,0.951150,0.575799,-0.204271,-0.779731,-0.136965,-0.048866,0.008829,-0.776674,-0.002571,0.021269,0.076861,-0.022995,0.125905,0.057077
1403637136158319104,4.635432,-1.739560,0.947246,0.575090,-0.204117,-0.780243,-0.137264,-0.049441,0.006755,-0.784866,-0.002571,0.021269,0.076861,-0.022995,0.125905,0.057077
1403637136163319040,4.635184,-1.739534,0.943301,0.574377,-0.203935,-0.780768,-0.137538,-0.049594,0.003914,-0.793140,-0.002571,0.021269,0.076861,-0.022995,0.125905,0.057077
1403637136168318976,4.634937,-1.739522,0.939314,0.573657,-0.203756,-0.781306,-0.137755,-0.049441,0.000623,-0.801579,-0.002571,0.021269,0.076861,-0.022995,0.125905,0.057077
1403637136173319168,4.634691,-1.739527,0.935286,0.572926,-0.203615,-0.781857,-0.137886,-0.048799,-0.002716,-0.809835,-0.002571,0.021269,0.076861,-0.022995,0.125905,0.057077
1403637136178319104,4.634450,-1.739548,0.931218,0.572187,-0.203536,-0.782414,-0.137916,-0.047639,-0.005537,-0.817239,-0.002571,0.021269,0.076861,-0.022995,0.125905,0.057077
1403637136183319040,4.634216,-1.739581,0.927117,0.571445,-0.203545,-0.782965,-0.137852,-0.046138,-0.007792,-0.823115,-0.002571,0.021269,0.076861,-0.022995,0.125905,0.057077
1403637136188318976,4.633989,-1.739625,0.922991,0.570706,-0.203657,-0.783503,-0.137695,-0.044556,-0.009793,-0.827498,-0.002571,0.021269,0.076861,-0.022995,0.125905,0.057077
1403637136193319168,4.633769,-1.739679,0.918845,0.569974,-0.203862,-0.784025,-0.137452,-0.043284,-0.011671,-0.830667,-0.002571,0.021269,0.076861,-0.022995,0.125905,0.057077
1403637136198318848,4.633555,-1.739741,0.914686,0.569258,-0.204140,-0.784528,-0.137141,-0.042330,-0.013297,-0.832882,-0.002571,0.021269,0.076861,-0.022995,0.125905,0.057077
1403637136203319040,4.633346,-1.739811,0.910518,0.568555,-0.204455,-0.785019,-0.136781,-0.041166,-0.014512,-0.834429,-0.002571,0.021269,0.076861,-0.022995,0.125905,0.057077
1403637136208318976,4.633145,-1.739885,0.906343,0.567849,-0.204757,-0.785515,-0.136415,-0.039529,-0.015208,-0.835726,-0.002571,0.021269,0.076861,-0.022995,0.125905,0.057077
1403637136213319168,4.632952,-1.739962,0.902161,0.567128,-0.205035,-0.786021,-0.136085,-0.037390,-0.015317,-0.837077,-0.002571,0.021269,0.076861,-0.022995,0.125905,0.057077
1403637136218318848,4.632772,-1.740038,0.897971,0.566379,-0.205272,-0.786546,-0.135820,-0.034707,-0.015314,-0.838688,-0.002571,0.021269,0.076861,-0.022995,0.125905,0.057077
1403637136223319040,4.632606,-1.740115,0.893773,0.565580,-0.205442,-0.787108,-0.135639,-0.031670,-0.015619,-0.840579,-0.002571,0.021269,0.076861,-0.022995,0.125905,0.057077
1403637136228318976,4.632456,-1.740195,0.889564,0.564730,-0.205536,-0.787714,-0.135530,-0.028529,-0.016391,-0.842901,-0.002571,0.021269,0.076861,-0.022995,0.125905,0.057077
1403637136233319168,4.632321,-1.740281,0.885344,0.563830,-0.205555,-0.788363,-0.135478,-0.025415,-0.017842,-0.845238,-0.002571,0.021269,0.076861,-0.022995,0.125905,0.057077
1403637136238318848,4.632201,-1.740375,0.881112,0.562889,-0.205512,-0.789050,-0.135464,-0.022489,-0.019845,-0.847511,-0.002571,0.021269,0.076861,-0.022995,0.125905,0.057077
1403637136243319040,4.632095,-1.740480,0.876869,0.561910,-0.205422,-0.789772,-0.135464,-0.019897,-0.021907,-0.849633,-0.002571,0.021269,0.076861,-0.022995,0.125905,0.057077
1403637136248318976,4.632002,-1.740594,0.872617,0.560902,-0.205306,-0.790521,-0.135452,-0.017524,-0.023786,-0.851333,-0.002571,0.021269,0.076861,-0.022995,0.125905,0.057077
1403637136253318912,4.631919,-1.740717,0.868357,0.559875,-0.205203,-0.791285,-0.135400,-0.015436,-0.025329,-0.852504,-0.002571,0.021269,0.076861,-0.022995,0.125905,0.057077
1403637136258318848,4.631847,-1.740846,0.864094,0.558836,-0.205143,-0.792055,-0.135286,-0.013654,-0.026538,-0.852872,-0.002571,0.021269,0.076861,-0.022995,0.125905,0.057077
1403637136263319040,4.631782,-1.740981,0.859831,0.557800,-0.205146,-0.792817,-0.135101,-0.012169,-0.027476,-0.852201,-0.002571,0.021269,0.076861,-0.022995,0.125905,0.057077
1403637136268318976,4.631724,-1.741120,0.855574,0.556784,-0.205234,-0.793554,-0.134833,-0.011055,-0.028139,-0.850561,-0.002571,0.021269,0.076861,-0.022995,0.125905,0.057077
1403637136273318912,4.631671,-1.741263,0.851328,0.555794,-0.205406,-0.794264,-0.134484,-0.010215,-0.028798,-0.847956,-0.002571,0.021269,0.076861,-0.022995,0.125905,0.057077
1403637136278318848,4.631622,-1.741409,0.847097,0.554825,-0.205659,-0.794947,-0.134069,-0.009403,-0.029507,-0.844579,-0.002571,0.021269,0.076861,-0.022995,0.125905,0.057077
1403637136283319040,4.631577,-1.741557,0.842883,0.553875,-0.205980,-0.795607,-0.133594,-0.008387,-0.029919,-0.840728,-0.002571,0.021269,0.076861,-0.022995,0.125905,0.057077
1403637136288319232,4.631539,-1.741707,0.838690,0.552934,-0.206352,-0.796251,-0.133085,-0.007076,-0.029892,-0.836615,-0.002571,0.021269,0.076861,-0.022995,0.125905,0.057077
1403637136293318912,4.631507,-1.741855,0.834517,0.551985,-0.206751,-0.796890,-0.132586,-0.005392,-0.029401,-0.832572,-0.002571,0.021269,0.076861,-0.022995,0.125905,0.057077
1403637136298319104,4.631486,-1.742000,0.830364,0.551005,-0.207154,-0.797541,-0.132127,-0.003183,-0.028648,-0.828681,-0.002571,0.021269,0.076861,-0.022995,0.125905,0.057077
1403637136303319040,4.631477,-1.742142,0.826231,0.549990,-0.207540,-0.798209,-0.131722,-0.000410,-0.028065,-0.824316,-0.002571,0.021269,0.076861,-0.022995,0.125905,0.057077
1403637136308318976,4.631483,-1.742282,0.822123,0.548943,-0.207866,-0.798899,-0.131404,0.002781,-0.027926,-0.819137,-0.002571,0.021269,0.076861,-0.022995,0.125905,0.057077
1403637136313318912,4.631505,-1.742423,0.818041,0.547878,-0.208109,-0.799602,-0.131191,0.006184,-0.028469,-0.813599,-0.002571,0.021269,0.076861,-0.022995,0.125905,0.057077
1403637136318319104,4.631544,-1.742569,0.813986,0.546804,-0.208283,-0.800315,-0.131053,0.009494,-0.029885,-0.808465,-0.002571,0.021269,0.076861,-0.022995,0.125905,0.057077
1403637136323319040,4.631600,-1.742723,0.809954,0.545714,-0.208402,-0.801046,-0.130949,0.012551,-0.031967,-0.804184,-0.002571,0.021269,0.076861,-0.022995,0.125905,0.057077
1403637136328318976,4.631670,-1.742889,0.805942,0.544612,-0.208493,-0.801791,-0.130839,0.015474,-0.034385,-0.800672,-0.002571,0.021269,0.076861,-0.022995,0.125905,0.057077
1403637136333318912,4.631754,-1.743067,0.801947,0.543508,-0.208584,-0.802542,-0.130687,0.018372,-0.036950,-0.797183,-0.002571,0.021269,0.076861,-0.022995,0.125905,0.057077
1403637136338319104,4.631853,-1.743258,0.797972,0.542415,-0.208702,-0.803287,-0.130464,0.021067,-0.039426,-0.792834,-0.002571,0.021269,0.076861,-0.022995,0.125905,0.057077
1403637136343319040,4.631964,-1.743461,0.794021,0.541348,-0.208854,-0.804020,-0.130153,0.023392,-0.041714,-0.787704,-0.002571,0.021269,0.076861,-0.022995,0.125905,0.057077
1403637136348318976,4.632086,-1.743675,0.790096,0.540306,-0.209036,-0.804739,-0.129748,0.025368,-0.043680,-0.782123,-0.002571,0.021269,0.076861,-0.022995,0.125905,0.057077
1403637136353318912,4.632217,-1.743897,0.786201,0.539297,-0.209254,-0.805440,-0.129250,0.027021,-0.045117,-0.776237,-0.002571,0.021269,0.076861,-0.022995,0.125905,0.057077
1403637136358319104,4.632356,-1.744124,0.782335,0.538321,-0.209504,-0.806120,-0.128683,0.028496,-0.045927,-0.769820,-0.002571,0.021269,0.076861,-0.022995,0.125905,0.057077
1403637136363319040,4.632502,-1.744355,0.778504,0.537374,-0.209771,-0.806779,-0.128077,0.030136,-0.046143,-0.762741,-0.002571,0.021269,0.076861,-0.022995,0.125905,0.057077
1403637136368318976,4.632658,-1.744585,0.774709,0.536447,-0.210040,-0.807425,-0.127463,0.032223,-0.045968,-0.755387,-0.002571,0.021269,0.076861,-0.022995,0.125905,0.057077
1403637136373318912,4.632826,-1.744814,0.770950,0.535519,-0.210309,-0.808066,-0.126865,0.034942,-0.045648,-0.748057,-0.002571,0.021269,0.076861,-0.022995,0.125905,0.057077
1403637136378319104,4.633009,-1.745041,0.767228,0.534583,-0.210573,-0.808706,-0.126298,0.038081,-0.045376,-0.740874,-0.002571,0.021269,0.076861,-0.022995,0.125905,0.057077
