#timestamp, p_RS_R_x [m], p_RS_R_y [m], p_RS_R_z [m], q_RS_w [], q_RS_x [], q_RS_y [], q_RS_z [], v_RS_R_x [m s^-1], v_RS_R_y [m s^-1], v_RS_R_z [m s^-1], b_w_RS_S_x [rad s^-1], b_w_RS_S_y [rad s^-1], b_w_RS_S_z [rad s^-1], b_a_RS_S_x [m s^-2], b_a_RS_S_y [m s^-2], b_a_RS_S_z [m s^-2]
1403715274302142976,0.878612,2.142470,0.947262,0.060514,-0.828459,-0.058956,-0.553641,0.009474,-0.014009,-0.002145,-0.002229,0.020700,0.076350,-0.012492,0.547666,0.069073
1403715274307142912,0.878658,2.142398,0.947252,0.060571,-0.828433,-0.059051,-0.553664,0.009056,-0.015066,-0.001741,-0.002229,0.020700,0.076350,-0.012492,0.547666,0.069073
1403715274312143104,0.878703,2.142317,0.947242,0.060600,-0.828405,-0.059100,-0.553697,0.008820,-0.017332,-0.002013,-0.002229,0.020700,0.076350,-0.012492,0.547666,0.069073
1403715274317143040,0.878746,2.142225,0.947230,0.060577,-0.828395,-0.059095,-0.553715,0.008513,-0.019354,-0.003039,-0.002229,0.020700,0.076350,-0.012492,0.547666,0.069073
1403715274322142976,0.878787,2.142125,0.947213,0.060511,-0.828410,-0.059057,-0.553704,0.008006,-0.020572,-0.003657,-0.002229,0.020700,0.076350,-0.012492,0.547666,0.069073
1403715274327142912,0.878826,2.142021,0.947195,0.060430,-0.828430,-0.058994,-0.553690,0.007499,-0.020926,-0.003418,-0.002229,0.020700,0.076350,-0.012492,0.547666,0.069073
1403715274332143104,0.878862,2.141919,0.947181,0.060351,-0.828434,-0.058938,-0.553697,0.006937,-0.019963,-0.002471,-0.002229,0.020700,0.076350,-0.012492,0.547666,0.069073
1403715274337143040,0.878896,2.141825,0.947171,0.060292,-0.828421,-0.058910,-0.553727,0.006449,-0.017784,-0.001462,-0.002229,0.020700,0.076350,-0.012492,0.547666,0.069073
1403715274342142976,0.878927,2.141743,0.947165,0.060273,-0.828396,-0.058910,-0.553766,0.006253,-0.015039,-0.000948,-0.002229,0.020700,0.076350,-0.012492,0.547666,0.069073
1403715274347142912,0.878958,2.141674,0.947159,0.060311,-0.828368,-0.058930,-0.553802,0.005970,-0.012541,-0.001497,-0.002229,0.020700,0.076350,-0.012492,0.547666,0.069073
1403715274352143104,0.878989,2.141612,0.947148,0.060386,-0.828353,-0.058963,-0.553813,0.005808,-0.011815,-0.002349,-0.002229,0.020700,0.076350,-0.012492,0.547666,0.069073
1403715274357143040,0.879017,2.141551,0.947135,0.060456,-0.828353,-0.058997,-0.553801,0.005696,-0.012582,-0.002551,-0.002229,0.020700,0.076350,-0.012492,0.547666,0.069073
1403715274362142976,0.879045,2.141483,0.947123,0.060489,-0.828362,-0.059011,-0.553783,0.005432,-0.014528,-0.002452,-0.002229,0.020700,0.076350,-0.012492,0.547666,0.069073
1403715274367142912,0.879072,2.141405,0.947114,0.060457,-0.828371,-0.058994,-0.553775,0.005331,-0.016900,-0.001234,-0.002229,0.020700,0.076350,-0.012492,0.547666,0.069073
1403715274372143104,0.879098,2.141317,0.947110,0.060382,-0.828367,-0.058934,-0.553796,0.005135,-0.018076,-0.000260,-0.002229,0.020700,0.076350,-0.012492,0.547666,0.069073
1403715274377142784,0.879124,2.141231,0.947108,0.060298,-0.828360,-0.058872,-0.553822,0.004988,-0.016457,-0.000638,-0.002229,0.020700,0.076350,-0.012492,0.547666,0.069073
1403715274382142976,0.879149,2.141160,0.947102,0.060273,-0.828361,-0.058847,-0.553826,0.005127,-0.011805,-0.001543,-0.002229,0.020700,0.076350,-0.012492,0.547666,0.069073
1403715274387142912,0.879174,2.141115,0.947091,0.060334,-0.828370,-0.058900,-0.553799,0.005104,-0.006277,-0.002831,-0.002229,0.020700,0.076350,-0.012492,0.547666,0.069073
1403715274392143104,0.879200,2.141091,0.947077,0.060460,-0.828391,-0.059029,-0.553740,0.005089,-0.003425,-0.002904,-0.002229,0.020700,0.076350,-0.012492,0.547666,0.069073
1403715274397142784,0.879225,2.141070,0.947065,0.060594,-0.828408,-0.059170,-0.553686,0.005076,-0.005112,-0.001896,-0.002229,0.020700,0.076350,-0.012492,0.547666,0.069073
1403715274402142976,0.879256,2.141018,0.947055,0.060657,-0.828415,-0.059247,-0.553660,0.005310,-0.011577,-0.001219,-0.002229,0.020700,0.076350,-0.012492,0.547666,0.069073
1403715274407143168,0.879283,2.140944,0.947052,0.060604,-0.828421,-0.059202,-0.553661,0.005489,-0.018229,-0.000211,-0.002229,0.020700,0.076350,-0.012492,0.547666,0.069073
1403715274412143104,0.879311,2.140846,0.947051,0.060441,-0.828429,-0.059037,-0.553685,0.005575,-0.021072,-0.000021,-0.002229,0.020700,0.076350,-0.012492,0.547666,0.069073
1403715274417143040,0.879338,2.140748,0.947049,0.060255,-0.828442,-0.058830,-0.553709,0.005344,-0.018096,-0.001067,-0.002229,0.020700,0.076350,-0.012492,0.547666,0.069073
1403715274422142976,0.879364,2.140675,0.947041,0.060167,-0.828461,-0.058689,-0.553704,0.004790,-0.010992,-0.001961,-0.002229,0.020700,0.076350,-0.012492,0.547666,0.069073
1403715274427143168,0.879386,2.140640,0.947030,0.060217,-0.828480,-0.058682,-0.553670,0.004099,-0.002955,-0.002409,-0.002229,0.020700,0.076350,-0.012492,0.547666,0.069073
1403715274432142848,0.879405,2.140638,0.947021,0.060365,-0.828487,-0.058797,-0.553633,0.003456,0.002069,-0.001361,-0.002229,0.020700,0.076350,-0.012492,0.547666,0.069073
1403715274437143040,0.879420,2.140648,0.947019,0.060533,-0.828468,-0.058970,-0.553623,0.002772,0.002075,0.000579,-0.002229,0.020700,0.076350,-0.012492,0.547666,0.069073
1403715274442142976,0.879433,2.140649,0.947023,0.060661,-0.828430,-0.059112,-0.553651,0.002447,-0.001649,0.001167,-0.002229,0.020700,0.076350,-0.012492,0.547666,0.069073
1403715274447143168,0.879446,2.140628,0.947028,0.060713,-0.828399,-0.059168,-0.553685,0.002657,-0.006677,0.000649,-0.002229,0.020700,0.076350,-0.012492,0.547666,0.069073
1403715274452142848,0.879472,2.140568,0.947022,0.060687,-0.828388,-0.059116,-0.553711,0.003490,-0.012354,-0.000418,-0.002229,0.020700,0.076350,-0.012492,0.547666,0.069073
1403715274457143040,0.879490,2.140500,0.947019,0.060583,-0.828391,-0.058997,-0.553731,0.003881,-0.015018,-0.000694,-0.002229,0.020700,0.076350,-0.012492,0.547666,0.069073
1403715274462142976,0.879510,2.140426,0.947015,0.060456,-0.828404,-0.058848,-0.553740,0.004095,-0.014668,-0.000776,-0.002229,0.020700,0.076350,-0.012492,0.547666,0.069073
1403715274467143168,0.879530,2.140360,0.947011,0.060324,-0.828422,-0.058738,-0.553740,0.003684,-0.011781,-0.001039,-0.002229,0.020700,0.076350,-0.012492,0.547666,0.069073
1403715274472142848,0.879547,2.140310,0.947008,0.060222,-0.828429,-0.058706,-0.553744,0.003111,-0.008136,0.000088,-0.002229,0.020700,0.076350,-0.012492,0.547666,0.069073
1403715274477143040,0.879561,2.140280,0.947012,0.060206,-0.828411,-0.058736,-0.553770,0.002631,-0.003793,0.001418,-0.002229,0.020700,0.076350,-0.012492,0.547666,0.069073
1403715274482142976,0.879574,2.140271,0.947019,0.060261,-0.828371,-0.058817,-0.553815,0.002470,-0.000011,0.001396,-0.002229,0.020700,0.076350,-0.012492,0.547666,0.069073
1403715274487142912,0.879586,2.140275,0.947024,0.060378,-0.828336,-0.058920,-0.553844,0.002364,0.001816,0.000618,-0.002229,0.020700,0.076350,-0.012492,0.547666,0.069073
1403715274492142848,0.879597,2.140284,0.947025,0.060509,-0.828314,-0.059032,-0.553851,0.002073,0.001598,-0.000194,-0.002229,0.020700,0.076350,-0.012492,0.547666,0.069073
1403715274497143040,0.879607,2.140287,0.947023,0.060595,-0.828306,-0.059137,-0.553842,0.002171,-0.000310,-0.000645,-0.002229,0.020700,0.076350,-0.012492,0.547666,0.069073
1403715274502142976,0.879637,2.140248,0.947013,0.060612,-0.828321,-0.059210,-0.553809,0.002969,-0.005044,-0.000925,-0.002229,0.020700,0.076350,-0.012492,0.547666,0.069073
1403715274507142912,0.879651,2.140215,0.947009,0.060529,-0.828339,-0.059239,-0.553788,0.002672,-0.008175,-0.000773,-0.002229,0.020700,0.076350,-0.012492,0.547666,0.069073
1403715274512142848,0.879664,2.140171,0.947007,0.060407,-0.828354,-0.059200,-0.553783,0.002408,-0.009325,0.000050,-0.002229,0.020700,0.076350,-0.012492,0.547666,0.069073
1403715274517143040,0.879674,2.140127,0.947008,0.060298,-0.828364,-0.059108,-0.553790,0.001676,-0.008543,0.000427,-0.002229,0.020700,0.076350,-0.012492,0.547666,0.069073
1403715274522142976,0.879681,2.140089,0.947008,0.060229,-0.828367,-0.058990,-0.553806,0.001206,-0.006680,-0.000356,-0.002229,0.020700,0.076350,-0.012492,0.547666,0.069073
1403715274527142912,0.879687,2.140062,0.947007,0.060220,-0.828370,-0.058890,-0.553813,0.001004,-0.003771,-0.000202,-0.002229,0.020700,0.076350,-0.012492,0.547666,0.069073
1403715274532143104,0.879691,2.140052,0.947005,0.060260,-0.828378,-0.058854,-0.553801,0.000709,-0.000249,-0.000383,-0.002229,0.020700,0.076350,-0.012492,0.547666,0.069073
1403715274537143040,0.879694,2.140058,0.947003,0.060324,-0.828389,-0.058886,-0.553773,0.000450,0.002673,-0.000580,-0.002229,0.020700,0.076350,-0.012492,0.547666,0.069073
1403715274542143232,0.879695,2.140077,0.947000,0.060407,-0.828398,-0.058960,-0.553743,-0.000017,0.004594,-0.000480,-0.002229,0.020700,0.076350,-0.012492,0.547666,0.069073
1403715274547142912,0.879694,2.140101,0.946999,0.060500,-0.828401,-0.059048,-0.553720,-0.000339,0.005130,0.000116,-0.002229,0.020700,0.076350,-0.012492,0.547666,0.069073
1403715274552143104,0.879719,2.140079,0.946993,0.060602,-0.828393,-0.059107,-0.553713,0.000877,0.001428,0.000760,-0.002229,0.020700,0.076350,-0.012492,0.547666,0.069073
1403715274557143040,0.879723,2.140079,0.946997,0.060651,-0.828384,-0.059126,-0.553720,0.000742,-0.001388,0.000662,-0.002229,0.020700,0.076350,-0.012492,0.547666,0.069073
1403715274562142976,0.879727,2.140066,0.946999,0.060634,-0.828386,-0.059108,-0.553721,0.000776,-0.003523,0.000249,-0.002229,0.020700,0.076350,-0.012492,0.547666,0.069073
1403715274567142912,0.879731,2.140048,0.947000,0.060565,-0.828391,-0.059080,-0.553723,0.000821,-0.003949,0.000284,-0.002229,0.020700,0.076350,-0.012492,0.547666,0.069073
1403715274572143104,0.879734,2.140028,0.947002,0.060468,-0.828397,-0.059067,-0.553727,0.000480,-0.003941,0.000441,-0.002229,0.020700,0.076350,-0.012492,0.547666,0.069073
1403715274577143040,0.879736,2.140007,0.947006,0.060361,-0.828404,-0.059054,-0.553729,0.000259,-0.004311,0.000937,-0.002229,0.020700,0.076350,-0.012492,0.547666,0.069073
1403715274582142976,0.879737,2.139984,0.947012,0.060274,-0.828398,-0.059009,-0.553752,-0.000127,-0.004931,0.001465,-0.002229,0.020700,0.076350,-0.012492,0.547666,0.069073
1403715274587142912,0.879735,2.139962,0.947018,0.060206,-0.828394,-0.058945,-0.553772,-0.000420,-0.003878,0.000903,-0.002229,0.020700,0.076350,-0.012492,0.547666,0.069073
1403715274592143104,0.879732,2.139949,0.947022,0.060174,-0.828389,-0.058890,-0.553789,-0.000688,-0.001331,0.001054,-0.002229,0.020700,0.076350,-0.012492,0.547666,0.069073
1403715274597143040,0.879728,2.139954,0.947026,0.060208,-0.828373,-0.058874,-0.553812,-0.001123,0.003037,0.000416,-0.002229,0.020700,0.076350,-0.012492,0.547666,0.069073
1403715274602142976,0.879755,2.139922,0.947014,0.060322,-0.828365,-0.058933,-0.553804,0.000015,0.005967,-0.000355,-0.002229,0.020700,0.076350,-0.012492,0.547666,0.069073
1403715274607142912,0.879754,2.139960,0.947013,0.060500,-0.828351,-0.059064,-0.553793,-0.000327,0.009021,-0.000038,-0.002229,0.020700,0.076350,-0.012492,0.547666,0.069073
1403715274612143104,0.879752,2.140001,0.947011,0.060672,-0.828336,-0.059221,-0.553779,-0.000345,0.007681,-0.000701,-0.002229,0.020700,0.076350,-0.012492,0.547666,0.069073
1403715274617143040,0.879752,2.140027,0.947009,0.060760,-0.828330,-0.059337,-0.553765,0.000060,0.002587,0.000002,-0.002229,0.020700,0.076350,-0.012492,0.547666,0.069073
1403715274622142976,0.879752,2.140026,0.947009,0.060735,-0.828325,-0.059356,-0.553774,0.000275,-0.003030,-0.000038,-0.002229,0.020700,0.076350,-0.012492,0.547666,0.069073
1403715274627142912,0.879753,2.140003,0.947009,0.060603,-0.828338,-0.059291,-0.553776,0.000141,-0.006343,0.000098,-0.002229,0.020700,0.076350,-0.012492,0.547666,0.069073
1403715274632143104,0.879753,2.139971,0.947010,0.060453,-0.828355,-0.059154,-0.553782,-0.000126,-0.006369,0.000002,-0.002229,0.020700,0.076350,-0.012492,0.547666,0.069073
1403715274637142784,0.879753,2.139947,0.947008,0.060319,-0.828368,-0.059020,-0.553791,-0.000145,-0.003263,-0.000611,-0.002229,0.020700,0.076350,-0.012492,0.547666,0.069073
1403715274642142976,0.879752,2.139943,0.947008,0.060238,-0.828376,-0.058952,-0.553795,-0.000265,0.001566,0.000683,-0.002229,0.020700,0.076350,-0.012492,0.547666,0.069073
1403715274647142912,0.879749,2.139962,0.947013,0.060238,-0.828373,-0.058968,-0.553799,-0.000941,0.006110,0.001000,-0.002229,0.020700,0.076350,-0.012492,0.547666,0.069073
1403715274652143104,0.879783,2.139915,0.947004,0.060306,-0.828359,-0.059052,-0.553803,0.000243,0.005584,0.001233,-0.002229,0.020700,0.076350,-0.012492,0.547666,0.069073
1403715274657143040,0.879783,2.139948,0.947012,0.060391,-0.828334,-0.059180,-0.553817,-0.000179,0.007327,0.002245,-0.002229,0.020700,0.076350,-0.012492,0.547666,0.069073
1403715274662142976,0.879781,2.139985,0.947024,0.060485,-0.828304,-0.059316,-0.553837,-0.000618,0.007612,0.002206,-0.002229,0.020700,0.076350,-0.012492,0.547666,0.069073
1403715274667143168,0.879777,2.140019,0.947036,0.060579,-0.828270,-0.059411,-0.553867,-0.000919,0.006028,0.002880,-0.002229,0.020700,0.076350,-0.012492,0.547666,0.069073
1403715274672143104,0.879770,2.140041,0.947049,0.060635,-0.828242,-0.059435,-0.553900,-0.001655,0.002594,0.002136,-0.002229,0.020700,0.076350,-0.012492,0.547666,0.069073
1403715274677143040,0.879761,2.140044,0.947059,0.060615,-0.828235,-0.059387,-0.553918,-0.002291,-0.001441,0.001811,-0.002229,0.020700,0.076350,-0.012492,0.547666,0.069073
1403715274682142976,0.879749,2.140031,0.947068,0.060529,-0.828242,-0.059273,-0.553930,-0.002403,-0.003431,0.001864,-0.002229,0.020700,0.076350,-0.012492,0.547666,0.069073
1403715274687143168,0.879736,2.140016,0.947075,0.060413,-0.828261,-0.059130,-0.553930,-0.002752,-0.002543,0.000880,-0.002229,0.020700,0.076350,-0.012492,0.547666,0.069073
1403715274692142848,0.879722,2.140013,0.947078,0.060329,-0.828281,-0.059015,-0.553921,-0.003014,0.001011,0.000567,-0.002229,0.020700,0.076350,-0.012492,0.547666,0.069073
1403715274697143040,0.879706,2.140031,0.947083,0.060316,-0.828287,-0.058970,-0.553918,-0.003153,0.006249,0.001275,-0.002229,0.020700,0.076350,-0.012492,0.547666,0.069073
1403715274702142976,0.879734,2.139984,0.947070,0.060409,-0.828274,-0.058982,-0.553927,-0.001589,0.007085,0.000944,-0.002229,0.020700,0.076350,-0.012492,0.547667,0.069073
1403715274707143168,0.879726,2.140025,0.947077,0.060535,-0.828245,-0.059065,-0.553947,-0.001610,0.009081,0.002152,-0.002229,0.020700,0.076350,-0.012492,0.547667,0.069073
1403715274712142848,0.879718,2.140068,0.947090,0.060654,-0.828202,-0.059161,-0.553988,-0.001593,0.008448,0.002746,-0.002229,0.020700,0.076350,-0.012492,0.547667,0.069073
1403715274717143040,0.879710,2.140104,0.947102,0.060716,-0.828166,-0.059237,-0.554027,-0.001539,0.005917,0.002016,-0.002229,0.020700,0.076350,-0.012492,0.547667,0.069073
1403715274722142976,0.879703,2.140127,0.947111,0.060715,-0.828148,-0.059263,-0.554052,-0.001215,0.003222,0.001930,-0.002229,0.020700,0.076350,-0.012492,0.547667,0.069073
1403715274727143168,0.879697,2.140139,0.947118,0.060664,-0.828142,-0.059237,-0.554069,-0.001286,0.001546,0.000535,-0.002229,0.020700,0.076350,-0.012492,0.547667,0.069073
1403715274732142848,0.879690,2.140145,0.947117,0.060580,-0.828159,-0.059186,-0.554058,-0.001313,0.000959,-0.000870,-0.002229,0.020700,0.076350,-0.012492,0.547667,0.069073
1403715274737143040,0.879683,2.140152,0.947112,0.060496,-0.828194,-0.059119,-0.554022,-0.001442,0.001768,-0.001108,-0.002229,0.020700,0.076350,-0.012492,0.547667,0.069073
1403715274742142976,0.879675,2.140166,0.947107,0.060425,-0.828226,-0.059075,-0.553986,-0.001834,0.003593,-0.000740,-0.002229,0.020700,0.076350,-0.012492,0.547667,0.069073
1403715274747142912,0.879665,2.140189,0.947106,0.060404,-0.828240,-0.059060,-0.553969,-0.001995,0.005681,0.000344,-0.002229,0.020700,0.076350,-0.012492,0.547667,0.069073
1403715274752142848,0.879703,2.140123,0.947087,0.060429,-0.828232,-0.059058,-0.553979,-0.000088,0.003513,-0.000273,-0.002229,0.020700,0.076350,-0.012492,0.547667,0.069073
1403715274757143040,0.879702,2.140144,0.947085,0.060467,-0.828225,-0.059086,-0.553982,-0.000024,0.004797,-0.000669,-0.002229,0.020700,0.076350,-0.012492,0.547667,0.069073
1403715274762142976,0.879703,2.140171,0.947082,0.060529,-0.828223,-0.059121,-0.553975,0.000096,0.006071,-0.000557,-0.002229,0.020700,0.076350,-0.012492,0.547667,0.069073
1403715274767142912,0.879703,2.140203,0.947078,0.060600,-0.828222,-0.059157,-0.553964,0.000282,0.006638,-0.000758,-0.002229,0.020700,0.076350,-0.012492,0.547667,0.069073
1403715274772142848,0.879705,2.140235,0.947074,0.060656,-0.828233,-0.059185,-0.553939,0.000261,0.006052,-0.001100,-0.002229,0.020700,0.076350,-0.012492,0.547667,0.069073
1403715274777143040,0.879705,2.140262,0.947071,0.060673,-0.828248,-0.059200,-0.553913,-0.000088,0.004759,-0.000067,-0.002229,0.020700,0.076350,-0.012492,0.547667,0.069073
1403715274782143232,0.879704,2.140282,0.947074,0.060668,-0.828252,-0.059183,-0.553909,-0.000561,0.003301,0.001509,-0.002229,0.020700,0.076350,-0.012492,0.547667,0.069073
1403715274787142912,0.879700,2.140295,0.947085,0.060633,-0.828240,-0.059147,-0.553934,-0.001006,0.002034,0.002536,-0.002229,0.020700,0.076350,-0.012492,0.547667,0.069073
1403715274792143104,0.879693,2.140305,0.947096,0.060578,-0.828225,-0.059085,-0.553970,-0.001612,0.001776,0.001849,-0.002229,0.020700,0.076350,-0.012492,0.547667,0.069073
1403715274797143040,0.879684,2.140318,0.947103,0.060518,-0.828220,-0.059025,-0.553990,-0.002101,0.003535,0.000980,-0.002229,0.020700,0.076350,-0.012492,0.547667,0.069073
1403715274802142976,0.879722,2.140242,0.947083,0.060523,-0.828218,-0.058963,-0.553999,-0.000342,0.002295,0.000224,-0.002229,0.020700,0.076350,-0.012492,0.547667,0.069073
1403715274807142912,0.879719,2.140260,0.947083,0.060544,-0.828218,-0.058965,-0.553997,-0.000817,0.004933,-0.000328,-0.002229,0.020700,0.076350,-0.012492,0.547667,0.069073
1403715274812143104,0.879714,2.140288,0.947080,0.060573,-0.828227,-0.059008,-0.553976,-0.001251,0.006245,-0.000719,-0.002229,0.020700,0.076350,-0.012492,0.547667,0.069073
1403715274817143040,0.879707,2.140320,0.947080,0.060621,-0.828231,-0.059060,-0.553959,-0.001545,0.006487,0.000482,-0.002229,0.020700,0.076350,-0.012492,0.547667,0.069073
1403715274822142976,0.879698,2.140349,0.947087,0.060676,-0.828212,-0.059109,-0.553976,-0.001784,0.005282,0.002370,-0.002229,0.020700,0.076350,-0.012492,0.547667,0.069073
1403715274827142912,0.879689,2.140370,0.947099,0.060696,-0.828181,-0.059135,-0.554017,-0.002007,0.003142,0.002602,-0.002229,0.020700,0.076350,-0.012492,0.547667,0.069073
1403715274832143104,0.879679,2.140383,0.947109,0.060658,-0.828159,-0.059132,-0.554055,-0.002130,0.001863,0.001305,-0.002229,0.020700,0.076350,-0.012492,0.547667,0.069073
1403715274837143040,0.879667,2.140394,0.947114,0.060616,-0.828152,-0.059095,-0.554074,-0.002426,0.002625,0.000761,-0.002229,0.020700,0.076350,-0.012492,0.547667,0.069073
1403715274842142976,0.879654,2.140411,0.947117,0.060606,-0.828157,-0.059045,-0.554073,-0.002847,0.004314,0.000325,-0.002229,0.020700,0.076350,-0.012492,0.547667,0.069073
1403715274847142912,0.879639,2.140435,0.947117,0.060601,-0.828180,-0.058997,-0.554044,-0.003244,0.004970,-0.000130,-0.002229,0.020700,0.076350,-0.012492,0.547667,0.069073
1403715274852143104,0.879673,2.140353,0.947090,0.060613,-0.828203,-0.058930,-0.554015,-0.001528,0.000973,-0.001105,-0.002229,0.020700,0.076350,-0.012492,0.547667,0.069073
1403715274857143040,0.879665,2.140362,0.947088,0.060606,-0.828207,-0.058911,-0.554013,-0.001727,0.002646,0.000317,-0.002229,0.020700,0.076350,-0.012492,0.547667,0.069073
1403715274862142976,0.879657,2.140380,0.947092,0.060617,-0.828195,-0.058929,-0.554026,-0.001668,0.004814,0.001284,-0.002229,0.020700,0.076350,-0.012492,0.547667,0.069073
1403715274867142912,0.879648,2.140408,0.947098,0.060631,-0.828176,-0.058981,-0.554048,-0.001638,0.006147,0.001119,-0.002229,0.020700,0.076350,-0.012492,0.547667,0.069073
1403715274872143104,0.879640,2.140440,0.947102,0.060661,-0.828165,-0.059023,-0.554057,-0.001765,0.006726,0.000469,-0.002229,0.020700,0.076350,-0.012492,0.547667,0.069073
1403715274877142784,0.879631,2.140476,0.947102,0.060716,-0.828160,-0.059038,-0.554057,-0.001919,0.007550,-0.000246,-0.002229,0.020700,0.076350,-0.012492,0.547667,0.069073
1403715274882142976,0.879621,2.140513,0.947100,0.060784,-0.828161,-0.059022,-0.554050,-0.001952,0.007606,-0.000520,-0.002229,0.020700,0.076350,-0.012492,0.547667,0.069073
1403715274887142912,0.879612,2.140548,0.947098,0.060813,-0.828175,-0.058988,-0.554030,-0.001816,0.006207,-0.000595,-0.002229,0.020700,0.076350,-0.012492,0.547667,0.069073
1403715274892143104,0.879603,2.140575,0.947096,0.060775,-0.828189,-0.058946,-0.554017,-0.001691,0.004781,-0.000067,-0.002229,0.020700,0.076350,-0.012492,0.547667,0.069073
1403715274897142784,0.879594,2.140601,0.947097,0.060701,-0.828199,-0.058902,-0.554015,-0.001823,0.005327,0.000436,-0.002229,0.020700,0.076350,-0.012492,0.547667,0.069073
1403715274902142976,0.879639,2.140527,0.947072,0.060660,-0.828205,-0.058866,-0.554014,0.000362,0.002710,-0.000270,-0.002229,0.020700,0.076350,-0.012492,0.547667,0.069073
1403715274907143168,0.879640,2.140545,0.947070,0.060643,-0.828210,-0.058874,-0.554008,0.000183,0.004598,-0.000322,-0.002229,0.020700,0.076350,-0.012492,0.547667,0.069073
1403715274912143104,0.879640,2.140572,0.947067,0.060665,-0.828213,-0.058892,-0.554000,-0.000162,0.006225,-0.000782,-0.002229,0.020700,0.076350,-0.012492,0.547667,0.069073
1403715274917143040,0.879638,2.140606,0.947064,0.060731,-0.828216,-0.058898,-0.553987,-0.000508,0.007425,-0.000410,-0.002229,0.020700,0.076350,-0.012492,0.547667,0.069073
1403715274922142976,0.879635,2.140644,0.947064,0.060805,-0.828218,-0.058906,-0.553975,-0.000693,0.007625,0.000128,-0.002229,0.020700,0.076350,-0.012492,0.547667,0.069073
1403715274927143168,0.879632,2.140678,0.947066,0.060847,-0.828218,-0.058918,-0.553968,-0.000596,0.006104,0.000695,-0.002229,0.020700,0.076350,-0.012492,0.547667,0.069073
1403715274932142848,0.879629,2.140704,0.947069,0.060837,-0.828217,-0.058917,-0.553971,-0.000684,0.004283,0.000685,-0.002229,0.020700,0.076350,-0.012492,0.547667,0.069073
1403715274937143040,0.879624,2.140725,0.947072,0.060791,-0.828219,-0.058910,-0.553974,-0.001119,0.004096,0.000344,-0.002229,0.020700,0.076350,-0.012492,0.547667,0.069073
1403715274942142976,0.879618,2.140748,0.947074,0.060754,-0.828230,-0.058905,-0.553962,-0.001574,0.005235,0.000587,-0.002229,0.020700,0.076350,-0.012492,0.547667,0.069073
1403715274947143168,0.879609,2.140776,0.947077,0.060740,-0.828238,-0.058899,-0.553952,-0.001921,0.005986,0.000644,-0.002229,0.020700,0.076350,-0.012492,0.547667,0.069073
1403715274952142848,0.879651,2.140701,0.947052,0.060778,-0.828242,-0.058853,-0.553947,-0.000054,0.001698,-0.000711,-0.002229,0.020700,0.076350,-0.012492,0.547667,0.069073
1403715274957143040,0.879650,2.140712,0.947049,0.060795,-0.828246,-0.058823,-0.553942,-0.000510,0.002511,-0.000191,-0.002229,0.020700,0.076350,-0.012492,0.547667,0.069073
1403715274962142976,0.879646,2.140727,0.947051,0.060818,-0.828241,-0.058804,-0.553950,-0.000894,0.003668,0.000819,-0.002229,0.020700,0.076350,-0.012492,0.547667,0.069073
1403715274967143168,0.879642,2.140747,0.947055,0.060826,-0.828235,-0.058803,-0.553957,-0.000945,0.004352,0.000912,-0.002229,0.020700,0.076350,-0.012492,0.547667,0.069073
1403715274972142848,0.879637,2.140770,0.947058,0.060813,-0.828241,-0.058814,-0.553950,-0.000928,0.004681,0.000260,-0.002229,0.020700,0.076350,-0.012492,0.547667,0.069073
1403715274977143040,0.879631,2.140795,0.947059,0.060803,-0.828256,-0.058833,-0.553926,-0.001350,0.005582,0.000146,-0.002229,0.020700,0.076350,-0.012492,0.547667,0.069073
1403715274982142976,0.879623,2.140826,0.947062,0.060817,-0.828264,-0.058855,-0.553910,-0.001856,0.006788,0.000984,-0.002229,0.020700,0.076350,-0.012492,0.547667,0.069073
1403715274987142912,0.879613,2.140861,0.947069,0.060855,-0.828261,-0.058868,-0.553909,-0.002104,0.007227,0.001831,-0.002229,0.020700,0.076350,-0.012492,0.547667,0.069073
1403715274992142848,0.879601,2.140896,0.947079,0.060890,-0.828258,-0.058859,-0.553911,-0.002670,0.006555,0.002026,-0.002229,0.020700,0.076350,-0.012492,0.547667,0.069073
1403715274997143040,0.879587,2.140926,0.947091,0.060901,-0.828254,-0.058826,-0.553919,-0.003288,0.005625,0.002738,-0.002229,0.020700,0.076350,-0.012492,0.547667,0.069073
1403715275002142976,0.879623,2.140853,0.947079,0.060912,-0.828235,-0.058765,-0.553952,-0.001167,0.001429,0.001991,-0.002229,0.020700,0.076350,-0.012492,0.547667,0.069073
1403715275007142912,0.879617,2.140863,0.947087,0.060884,-0.828224,-0.058737,-0.553975,-0.001298,0.002622,0.001151,-0.002229,0.020700,0.076350,-0.012492,0.547667,0.069073
1403715275012142848,0.879609,2.140880,0.947090,0.060864,-0.828235,-0.058722,-0.553962,-0.001790,0.004096,0.000051,-0.002229,0.020700,0.076350,-0.012492,0.547667,0.069073
1403715275017143040,0.879599,2.140904,0.947089,0.060869,-0.828253,-0.058717,-0.553935,-0.002255,0.005670,-0.000244,-0.002229,0.020700,0.076350,-0.012492,0.547667,0.069073
1403715275022142976,0.879587,2.140936,0.947090,0.060905,-0.828257,-0.058728,-0.553924,-0.002596,0.007164,0.000473,-0.002229,0.020700,0.076350,-0.012492,0.547667,0.069073
1403715275027142912,0.879573,2.140974,0.947094,0.060947,-0.828251,-0.058760,-0.553926,-0.002864,0.007791,0.001365,-0.002229,0.020700,0.076350,-0.012492,0.547667,0.069073
1403715275032143104,0.879558,2.141011,0.947103,0.060980,-0.828233,-0.058795,-0.553944,-0.002978,0.007057,0.002194,-0.002229,0.020700,0.076350,-0.012492,0.547667,0.069073
1403715275037143040,0.879543,2.141043,0.947115,0.060988,-0.828210,-0.058807,-0.553976,-0.003132,0.005740,0.002305,-0.002229,0.020700,0.076350,-0.012492,0.547667,0.069073
1403715275042143232,0.879527,2.141070,0.947125,0.060957,-0.828193,-0.058804,-0.554006,-0.003307,0.005103,0.001915,-0.002229,0.020700,0.076350,-0.012492,0.547667,0.069073
1403715275047142912,0.879510,2.141096,0.947133,0.060919,-0.828187,-0.058781,-0.554022,-0.003379,0.005246,0.001148,-0.002229,0.020700,0.076350,-0.012492,0.547667,0.069073
1403715275052143104,0.879545,2.141025,0.947109,0.060924,-0.828199,-0.058727,-0.554008,-0.001176,0.001798,-0.000932,-0.002229,0.020700,0.076350,-0.012492,0.547668,0.069074
1403715275057143040,0.879539,2.141037,0.947104,0.060922,-0.828217,-0.058701,-0.553985,-0.001193,0.003018,-0.000938,-0.002229,0.020700,0.076350,-0.012492,0.547668,0.069074
1403715275062142976,0.879533,2.141055,0.947101,0.060926,-0.828227,-0.058699,-0.553970,-0.001244,0.004251,-0.000377,-0.002229,0.020700,0.076350,-0.012492,0.547668,0.069074
1403715275067142912,0.879527,2.141078,0.947102,0.060934,-0.828228,-0.058724,-0.553965,-0.001341,0.005103,0.000767,-0.002229,0.020700,0.076350,-0.012492,0.547668,0.069074
1403715275072143104,0.879520,2.141104,0.947107,0.060955,-0.828219,-0.058743,-0.553973,-0.001426,0.005039,0.001538,-0.002229,0.020700,0.076350,-0.012492,0.547668,0.069074
1403715275077143040,0.879513,2.141127,0.947115,0.060972,-0.828205,-0.058748,-0.553992,-0.001458,0.004264,0.001537,-0.002229,0.020700,0.076350,-0.012492,0.547668,0.069074
1403715275082142976,0.879505,2.141147,0.947122,0.060969,-0.828198,-0.058738,-0.554004,-0.001425,0.003824,0.001143,-0.002229,0.020700,0.076350,-0.012492,0.547668,0.069074
1403715275087142912,0.879498,2.141168,0.947126,0.060963,-0.828196,-0.058718,-0.554010,-0.001351,0.004392,0.000590,-0.002229,0.020700,0.076350,-0.012492,0.547668,0.069074
1403715275092143104,0.879491,2.141192,0.947128,0.060984,-0.828201,-0.058688,-0.554004,-0.001454,0.005315,0.000253,-0.002229,0.020700,0.076350,-0.012492,0.547668,0.069074
1403715275097143040,0.879484,2.141219,0.947128,0.061010,-0.828213,-0.058658,-0.553987,-0.001670,0.005621,-0.000305,-0.002229,0.020700,0.076350,-0.012492,0.547668,0.069074
1403715275102142976,0.879527,2.141151,0.947100,0.061041,-0.828231,-0.058624,-0.553959,0.000372,0.001503,-0.001185,-0.002229,0.020700,0.076350,-0.012492,0.547668,0.069074
1403715275107142912,0.879528,2.141159,0.947096,0.061034,-0.828245,-0.058624,-0.553939,0.000076,0.002069,-0.000324,-0.002229,0.020700,0.076350,-0.012492,0.547668,0.069074
1403715275112143104,0.879527,2.141170,0.947096,0.061022,-0.828249,-0.058637,-0.553933,-0.000422,0.002257,0.000368,-0.002229,0.020700,0.076350,-0.012492,0.547668,0.069074
1403715275117143040,0.879525,2.141181,0.947098,0.061015,-0.828246,-0.058645,-0.553937,-0.000675,0.002141,0.000327,-0.002229,0.020700,0.076350,-0.012492,0.547668,0.069074
1403715275122142976,0.879520,2.141193,0.947100,0.060992,-0.828245,-0.058653,-0.553940,-0.000976,0.002428,0.000404,-0.002229,0.020700,0.076350,-0.012492,0.547668,0.069074
1403715275127142912,0.879515,2.141207,0.947103,0.060976,-0.828244,-0.058652,-0.553944,-0.001324,0.003402,0.000832,-0.002229,0.020700,0.076350,-0.012492,0.547668,0.069074
1403715275132143104,0.879507,2.141227,0.947107,0.060987,-0.828243,-0.058640,-0.553946,-0.001571,0.004533,0.000815,-0.002229,0.020700,0.076350,-0.012492,0.547668,0.069074
1403715275137142784,0.879499,2.141251,0.947111,0.061015,-0.828248,-0.058631,-0.553935,-0.001801,0.004983,0.000703,-0.002229,0.020700,0.076350,-0.012492,0.547668,0.069074
1403715275142142976,0.879490,2.141275,0.947114,0.061037,-0.828261,-0.058625,-0.553915,-0.001966,0.004793,0.000784,-0.002229,0.020700,0.076350,-0.012492,0.547668,0.069074
1403715275147142912,0.879479,2.141298,0.947121,0.061038,-0.828268,-0.058628,-0.553903,-0.002275,0.004382,0.001661,-0.002229,0.020700,0.076350,-0.012492,0.547668,0.069074
1403715275152143104,0.879519,2.141226,0.947102,0.061050,-0.828272,-0.058623,-0.553897,-0.000550,0.000312,0.001016,-0.002229,0.020700,0.076350,-0.012492,0.547668,0.069074
1403715275157143040,0.879515,2.141228,0.947106,0.061035,-0.828270,-0.058630,-0.553900,-0.000890,0.000433,0.000807,-0.002229,0.020700,0.076350,-0.012492,0.547668,0.069074
1403715275162142976,0.879510,2.141231,0.947110,0.061018,-0.828271,-0.058622,-0.553902,-0.001125,0.000526,0.000732,-0.002229,0.020700,0.076350,-0.012492,0.547668,0.069074
1403715275167143168,0.879504,2.141235,0.947115,0.061010,-0.828272,-0.058601,-0.553903,-0.001559,0.001063,0.001233,-0.002229,0.020700,0.076350,-0.012492,0.547668,0.069074
1403715275172143104,0.879495,2.141243,0.947122,0.061030,-0.828264,-0.058574,-0.553916,-0.001999,0.002306,0.001603,-0.002229,0.020700,0.076350,-0.012492,0.547668,0.069074
1403715275177143040,0.879484,2.141258,0.947129,0.061068,-0.828257,-0.058556,-0.553925,-0.002214,0.003523,0.001373,-0.002229,0.020700,0.076350,-0.012492,0.547668,0.069074
1403715275182142976,0.879473,2.141277,0.947136,0.061099,-0.828253,-0.058557,-0.553927,-0.002184,0.004021,0.001419,-0.002229,0.020700,0.076350,-0.012492,0.547668,0.069074
1403715275187143168,0.879462,2.141296,0.947144,0.061120,-0.828253,-0.058570,-0.553923,-0.002326,0.003834,0.001778,-0.002229,0.020700,0.076350,-0.012492,0.547668,0.069074
1403715275192142848,0.879450,2.141315,0.947154,0.061120,-0.828253,-0.058589,-0.553921,-0.002450,0.003785,0.001860,-0.002229,0.020700,0.076350,-0.012492,0.547668,0.069074
1403715275197143040,0.879437,2.141334,0.947163,0.061104,-0.828254,-0.058608,-0.553919,-0.002691,0.003817,0.002076,-0.002229,0.020700,0.076350,-0.012492,0.547668,0.069074
1403715275202142976,0.879477,2.141262,0.947147,0.061104,-0.828255,-0.058609,-0.553917,-0.000630,-0.000158,0.001122,-0.002229,0.020700,0.076350,-0.012492,0.547669,0.069074
1403715275207143168,0.879473,2.141262,0.947153,0.061088,-0.828250,-0.058595,-0.553928,-0.000735,-0.000027,0.001544,-0.002229,0.020700,0.076350,-0.012492,0.547669,0.069074
1403715275212142848,0.879469,2.141263,0.947160,0.061082,-0.828241,-0.058566,-0.553945,-0.000851,0.000583,0.001292,-0.002229,0.020700,0.076350,-0.012492,0.547669,0.069074
1403715275217143040,0.879465,2.141269,0.947165,0.061081,-0.828238,-0.058544,-0.553952,-0.000755,0.001696,0.000693,-0.002229,0.020700,0.076350,-0.012492,0.547669,0.069074
1403715275222142976,0.879462,2.141280,0.947169,0.061101,-0.828240,-0.058527,-0.553949,-0.000746,0.002731,0.000663,-0.002229,0.020700,0.076350,-0.012492,0.547669,0.069074
1403715275227143168,0.879458,2.141295,0.947171,0.061124,-0.828246,-0.058529,-0.553938,-0.000814,0.003203,0.000307,-0.002229,0.020700,0.076350,-0.012492,0.547669,0.069074
1403715275232142848,0.879453,2.141311,0.947172,0.061130,-0.828255,-0.058546,-0.553922,-0.001069,0.003388,0.000126,-0.002229,0.020700,0.076350,-0.012492,0.547669,0.069074
1403715275237143040,0.879447,2.141329,0.947173,0.061121,-0.828261,-0.058567,-0.553911,-0.001376,0.003807,0.000136,-0.002229,0.020700,0.076350,-0.012492,0.547669,0.069074
1403715275242142976,0.879439,2.141349,0.947175,0.061120,-0.828265,-0.058582,-0.553904,-0.001714,0.004154,0.000846,-0.002229,0.020700,0.076350,-0.012492,0.547669,0.069074
1403715275247142912,0.879430,2.141370,0.947180,0.061134,-0.828264,-0.058575,-0.553905,-0.001860,0.003995,0.000985,-0.002229,0.020700,0.076350,-0.012492,0.547669,0.069074
1403715275252142848,0.879473,2.141302,0.947158,0.061167,-0.828267,-0.058541,-0.553900,0.000194,0.000029,-0.000271,-0.002229,0.020700,0.076350,-0.012492,0.547669,0.069074
1403715275257143040,0.879473,2.141303,0.947157,0.061171,-0.828269,-0.058509,-0.553901,-0.000173,0.000472,-0.000236,-0.002229,0.020700,0.076350,-0.012492,0.547669,0.069074
1403715275262142976,0.879472,2.141307,0.947156,0.061179,-0.828265,-0.058480,-0.553908,-0.000333,0.001217,-0.000163,-0.002229,0.020700,0.076350,-0.012492,0.547669,0.069074
1403715275267142912,0.879470,2.141314,0.947155,0.061194,-0.828262,-0.058466,-0.553913,-0.000439,0.001637,-0.000103,-0.002229,0.020700,0.076350,-0.012492,0.547669,0.069074
1403715275272142848,0.879467,2.141323,0.947153,0.061194,-0.828268,-0.058467,-0.553903,-0.000714,0.001741,-0.000692,-0.002229,0.020700,0.076350,-0.012492,0.547669,0.069074
1403715275277143040,0.879462,2.141333,0.947150,0.061180,-0.828281,-0.058484,-0.553884,-0.001138,0.002374,-0.000551,-0.002229,0.020700,0.076350,-0.012492,0.547669,0.069074
1403715275282143232,0.879456,2.141347,0.947149,0.061183,-0.828288,-0.058503,-0.553871,-0.001553,0.003298,0.000219,-0.002229,0.020700,0.076350,-0.012492,0.547669,0.069074
1403715275287142912,0.879447,2.141364,0.947152,0.061192,-0.828283,-0.058516,-0.553876,-0.001749,0.003490,0.001032,-0.002229,0.020700,0.076350,-0.012492,0.547669,0.069074
1403715275292143104,0.879438,2.141381,0.947158,0.061197,-0.828275,-0.058506,-0.553889,-0.001858,0.003035,0.001233,-0.002229,0.020700,0.076350,-0.012492,0.547669,0.069074
1403715275297143040,0.879429,2.141396,0.947164,0.061199,-0.828266,-0.058485,-0.553904,-0.002039,0.002954,0.001054,-0.002229,0.020700,0.076350,-0.012492,0.547669,0.069074
1403715275302142976,0.879469,2.141328,0.947145,0.061225,-0.828263,-0.058453,-0.553910,-0.000202,0.000079,0.000135,-0.002229,0.020700,0.076350,-0.012492,0.547669,0.069074
1403715275307142912,0.879468,2.141330,0.947145,0.061232,-0.828262,-0.058432,-0.553912,-0.000466,0.000699,0.000121,-0.002229,0.020700,0.076350,-0.012492,0.547669,0.069074
1403715275312143104,0.879465,2.141333,0.947144,0.061234,-0.828265,-0.058427,-0.553907,-0.000628,0.000796,-0.000470,-0.002229,0.020700,0.076350,-0.012492,0.547669,0.069074
1403715275317143040,0.879461,2.141339,0.947141,0.061227,-0.828282,-0.058426,-0.553884,-0.001031,0.001340,-0.000799,-0.002229,0.020700,0.076350,-0.012492,0.547669,0.069074
1403715275322142976,0.879454,2.141348,0.947138,0.061220,-0.828294,-0.058434,-0.553866,-0.001590,0.002521,-0.000530,-0.002229,0.020700,0.076350,-0.012492,0.547669,0.069074
1403715275327142912,0.879445,2.141362,0.947137,0.061231,-0.828294,-0.058449,-0.553862,-0.001956,0.003071,0.000299,-0.002229,0.020700,0.076350,-0.012492,0.547669,0.069074
1403715275332143104,0.879436,2.141376,0.947140,0.061245,-0.828286,-0.058455,-0.553872,-0.001918,0.002475,0.000842,-0.002229,0.020700,0.076350,-0.012492,0.547669,0.069074
1403715275337143040,0.879426,2.141388,0.947145,0.061247,-0.828278,-0.058443,-0.553886,-0.001817,0.002134,0.000954,-0.002229,0.020700,0.076350,-0.012492,0.547669,0.069074
1403715275342142976,0.879417,2.141400,0.947149,0.061239,-0.828268,-0.058428,-0.553902,-0.001998,0.002868,0.000970,-0.002229,0.020700,0.076350,-0.012492,0.547669,0.069074
1403715275347142912,0.879407,2.141416,0.947154,0.061242,-0.828259,-0.058421,-0.553917,-0.002098,0.003558,0.000843,-0.002229,0.020700,0.076350,-0.012492,0.547669,0.069074
1403715275352143104,0.879448,2.141350,0.947134,0.061266,-0.828257,-0.058413,-0.553918,0.000057,0.000010,-0.000504,-0.002229,0.020700,0.076350,-0.012492,0.547670,0.069074
1403715275357143040,0.879448,2.141350,0.947129,0.061265,-0.828262,-0.058417,-0.553909,-0.000088,0.000031,-0.001299,-0.002229,0.020700,0.076350,-0.012492,0.547670,0.069074
1403715275362142976,0.879446,2.141352,0.947122,0.061246,-0.828280,-0.058431,-0.553884,-0.000407,0.000727,-0.001468,-0.002229,0.020700,0.076350,-0.012492,0.547670,0.069074
1403715275367142912,0.879444,2.141358,0.947116,0.061239,-0.828294,-0.058441,-0.553862,-0.000785,0.001618,-0.001000,-0.002229,0.020700,0.076350,-0.012492,0.547670,0.069074
1403715275372143104,0.879439,2.141366,0.947113,0.061254,-0.828297,-0.058444,-0.553856,-0.001038,0.001520,-0.000131,-0.002229,0.020700,0.076350,-0.012492,0.547670,0.069074
1403715275377142784,0.879433,2.141372,0.947114,0.061267,-0.828291,-0.058432,-0.553865,-0.001219,0.000826,0.000329,-0.002229,0.020700,0.076350,-0.012492,0.547670,0.069074
1403715275382142976,0.879427,2.141376,0.947116,0.061260,-0.828282,-0.058408,-0.553882,-0.001447,0.000800,0.000434,-0.002229,0.020700,0.076350,-0.012492,0.547670,0.069074
1403715275387142912,0.879419,2.141381,0.947118,0.061255,-0.828276,-0.058380,-0.553893,-0.001700,0.001450,0.000615,-0.002229,0.020700,0.076350,-0.012492,0.547670,0.069074
1403715275392143104,0.879410,2.141390,0.947121,0.061267,-0.828269,-0.058362,-0.553905,-0.001901,0.002082,0.000378,-0.002229,0.020700,0.076350,-0.012492,0.547670,0.069074
1403715275397142784,0.879400,2.141401,0.947122,0.061275,-0.828263,-0.058357,-0.553913,-0.001997,0.002375,0.000195,-0.002229,0.020700,0.076350,-0.012492,0.547670,0.069074
1403715275402142976,0.879442,2.141334,0.947100,0.061272,-0.828267,-0.058368,-0.553907,0.000138,-0.000498,-0.000954,-0.002229,0.020700,0.076350,-0.012492,0.547670,0.069074
1403715275407143168,0.879442,2.141334,0.947096,0.061261,-0.828275,-0.058385,-0.553894,-0.000220,0.000489,-0.000873,-0.002229,0.020700,0.076350,-0.012492,0.547670,0.069074
1403715275412143104,0.879439,2.141337,0.947093,0.061273,-0.828279,-0.058399,-0.553885,-0.000775,0.000735,-0.000136,-0.002229,0.020700,0.076350,-0.012492,0.547670,0.069074
1403715275417143040,0.879435,2.141339,0.947094,0.061286,-0.828273,-0.058404,-0.553892,-0.001010,0.000061,0.000588,-0.002229,0.020700,0.076350,-0.012492,0.547670,0.069074
1403715275422142976,0.879430,2.141338,0.947099,0.061273,-0.828263,-0.058393,-0.553910,-0.001065,-0.000493,0.001100,-0.002229,0.020700,0.076350,-0.012492,0.547670,0.069074
1403715275427143168,0.879424,2.141337,0.947104,0.061246,-0.828253,-0.058369,-0.553930,-0.001257,-0.000078,0.001174,-0.002229,0.020700,0.076350,-0.012492,0.547670,0.069074
1403715275432142848,0.879417,2.141339,0.947110,0.061226,-0.828242,-0.058355,-0.553950,-0.001540,0.000830,0.000981,-0.002229,0.020700,0.076350,-0.012492,0.547670,0.069074
1403715275437143040,0.879409,2.141344,0.947113,0.061224,-0.828238,-0.058347,-0.553958,-0.001534,0.001529,0.000477,-0.002229,0.020700,0.076350,-0.012492,0.547670,0.069074
1403715275442142976,0.879402,2.141354,0.947114,0.061220,-0.828241,-0.058350,-0.553953,-0.001525,0.002231,-0.000072,-0.002229,0.020700,0.076350,-0.012492,0.547670,0.069074
1403715275447143168,0.879393,2.141367,0.947113,0.061215,-0.828250,-0.058364,-0.553939,-0.001879,0.003129,-0.000279,-0.002229,0.020700,0.076350,-0.012492,0.547670,0.069074
1403715275452142848,0.879436,2.141306,0.947091,0.061236,-0.828263,-0.058384,-0.553916,-0.000055,0.000415,-0.000991,-0.002229,0.020700,0.076350,-0.012492,0.547670,0.069074
1403715275457143040,0.879435,2.141308,0.947089,0.061258,-0.828268,-0.058391,-0.553904,-0.000298,0.000391,0.000112,-0.002229,0.020700,0.076350,-0.012492,0.547670,0.069074
1403715275462142976,0.879433,2.141309,0.947092,0.061264,-0.828261,-0.058386,-0.553914,-0.000310,-0.000161,0.000783,-0.002229,0.020700,0.076350,-0.012492,0.547670,0.069074
1403715275467143168,0.879431,2.141307,0.947095,0.061254,-0.828253,-0.058370,-0.553930,-0.000446,-0.000478,0.000724,-0.002229,0.020700,0.076350,-0.012492,0.547670,0.069074
1403715275472142848,0.879428,2.141305,0.947098,0.061242,-0.828249,-0.058340,-0.553940,-0.000752,-0.000115,0.000558,-0.002229,0.020700,0.076350,-0.012492,0.547670,0.069074
1403715275477143040,0.879424,2.141307,0.947100,0.061239,-0.828243,-0.058309,-0.553953,-0.000996,0.000616,0.000222,-0.002229,0.020700,0.076350,-0.012492,0.547670,0.069074
1403715275482142976,0.879419,2.141312,0.947101,0.061243,-0.828244,-0.058289,-0.553952,-0.001003,0.001623,0.000200,-0.002229,0.020700,0.076350,-0.012492,0.547670,0.069074
1403715275487142912,0.879414,2.141323,0.947102,0.061250,-0.828255,-0.058282,-0.553936,-0.001125,0.002784,-0.000088,-0.002229,0.020700,0.076350,-0.012492,0.547670,0.069074
1403715275492142848,0.879407,2.141340,0.947101,0.061263,-0.828271,-0.058294,-0.553909,-0.001442,0.003801,-0.000158,-0.002229,0.020700,0.076350,-0.012492,0.547670,0.069074
1403715275497143040,0.879400,2.141359,0.947102,0.061292,-0.828282,-0.058309,-0.553888,-0.001621,0.003958,0.000582,-0.002229,0.020700,0.076350,-0.012492,0.547670,0.069074
1403715275502142976,0.879447,2.141302,0.947088,0.061312,-0.828283,-0.058328,-0.553883,0.000666,0.000153,0.000610,-0.002229,0.020700,0.076350,-0.012492,0.547671,0.069075
1403715275507142912,0.879449,2.141301,0.947092,0.061304,-0.828276,-0.058331,-0.553893,0.000469,-0.000642,0.001211,-0.002229,0.020700,0.076350,-0.012492,0.547671,0.069075
1403715275512142848,0.879451,2.141296,0.947098,0.061285,-0.828264,-0.058320,-0.553915,0.000118,-0.001143,0.001092,-0.002229,0.020700,0.076350,-0.012492,0.547671,0.069075
1403715275517143040,0.879450,2.141291,0.947102,0.061268,-0.828252,-0.058306,-0.553937,-0.000278,-0.000894,0.000658,-0.002229,0.020700,0.076350,-0.012492,0.547671,0.069075
1403715275522142976,0.879448,2.141288,0.947104,0.061263,-0.828246,-0.058290,-0.553948,-0.000650,-0.000259,0.000025,-0.002229,0.020700,0.076350,-0.012492,0.547671,0.069075
1403715275527142912,0.879444,2.141289,0.947103,0.061262,-0.828247,-0.058282,-0.553947,-0.000910,0.000722,-0.000511,-0.002229,0.020700,0.076350,-0.012492,0.547671,0.069075
1403715275532143104,0.879439,2.141296,0.947099,0.061269,-0.828254,-0.058283,-0.553936,-0.001272,0.001866,-0.000899,-0.002229,0.020700,0.076350,-0.012492,0.547671,0.069075
1403715275537143040,0.879431,2.141307,0.947094,0.061286,-0.828269,-0.058298,-0.553910,-0.001736,0.002695,-0.001080,-0.002229,0.020700,0.076350,-0.012492,0.547671,0.069075
1403715275542143232,0.879422,2.141321,0.947091,0.061318,-0.828276,-0.058312,-0.553894,-0.002040,0.002603,-0.000369,-0.002229,0.020700,0.076350,-0.012492,0.547671,0.069075
1403715275547142912,0.879411,2.141332,0.947090,0.061343,-0.828273,-0.058315,-0.553895,-0.002156,0.001842,0.000175,-0.002229,0.020700,0.076350,-0.012492,0.547671,0.069075
1403715275552143104,0.879455,2.141267,0.947073,0.061333,-0.828266,-0.058319,-0.553907,-0.000008,-0.002173,-0.000256,-0.002229,0.020700,0.076350,-0.012492,0.547671,0.069075
1403715275557143040,0.879454,2.141255,0.947072,0.061315,-0.828257,-0.058291,-0.553925,-0.000155,-0.002565,-0.000264,-0.002229,0.020700,0.076350,-0.012492,0.547671,0.069075
1403715275562142976,0.879452,2.141243,0.947070,0.061297,-0.828251,-0.058261,-0.553939,-0.000530,-0.002073,-0.000538,-0.002229,0.020700,0.076350,-0.012492,0.547671,0.069075
1403715275567142912,0.879449,2.141235,0.947066,0.061288,-0.828251,-0.058243,-0.553942,-0.000952,-0.001107,-0.000984,-0.002229,0.020700,0.076350,-0.012492,0.547671,0.069075
1403715275572143104,0.879443,2.141232,0.947060,0.061296,-0.828258,-0.058235,-0.553931,-0.001244,-0.000037,-0.001398,-0.002229,0.020700,0.076350,-0.012492,0.547671,0.069075
1403715275577143040,0.879436,2.141235,0.947053,0.061315,-0.828270,-0.058241,-0.553911,-0.001594,0.000946,-0.001453,-0.002229,0.020700,0.076350,-0.012492,0.547671,0.069075
1403715275582142976,0.879427,2.141241,0.947046,0.061341,-0.828283,-0.058256,-0.553888,-0.002107,0.001544,-0.001429,-0.002229,0.020700,0.076350,-0.012492,0.547671,0.069075
1403715275587142912,0.879415,2.141248,0.947040,0.061366,-0.828290,-0.058270,-0.553872,-0.002501,0.001430,-0.000679,-0.002229,0.020700,0.076350,-0.012492,0.547671,0.069075
1403715275592143104,0.879403,2.141254,0.947039,0.061377,-0.828289,-0.058277,-0.553871,-0.002599,0.000820,0.000185,-0.002229,0.020700,0.076350,-0.012492,0.547671,0.069075
1403715275597143040,0.879389,2.141257,0.947041,0.061362,-0.828283,-0.058269,-0.553883,-0.002742,0.000200,0.000561,-0.002229,0.020700,0.076350,-0.012492,0.547671,0.069075
1403715275602142976,0.879429,2.141189,0.947027,0.061338,-0.828274,-0.058259,-0.553901,-0.000663,-0.002853,0.000160,-0.002229,0.020700,0.076350,-0.012492,0.547672,0.069075
1403715275607142912,0.879425,2.141177,0.947027,0.061319,-0.828275,-0.058243,-0.553903,-0.000926,-0.002204,-0.000052,-0.002229,0.020700,0.076350,-0.012492,0.547672,0.069075
1403715275612143104,0.879420,2.141168,0.947026,0.061309,-0.828285,-0.058232,-0.553890,-0.001122,-0.001223,-0.000501,-0.002229,0.020700,0.076350,-0.012492,0.547672,0.069075
1403715275617143040,0.879414,2.141165,0.947023,0.061314,-0.828295,-0.058225,-0.553875,-0.001282,0.000026,-0.000751,-0.002229,0.020700,0.076350,-0.012492,0.547672,0.069075
1403715275622142976,0.879407,2.141168,0.947019,0.061326,-0.828308,-0.058232,-0.553853,-0.001602,0.001368,-0.000916,-0.002229,0.020700,0.076350,-0.012492,0.547672,0.069075
1403715275627142912,0.879398,2.141177,0.947015,0.061351,-0.828321,-0.058254,-0.553829,-0.001910,0.002229,-0.000406,-0.002229,0.020700,0.076350,-0.012492,0.547672,0.069075
1403715275632143104,0.879388,2.141188,0.947015,0.061380,-0.828324,-0.058267,-0.553820,-0.002062,0.001948,0.000296,-0.002229,0.020700,0.076350,-0.012492,0.547672,0.069075
1403715275637142784,0.879377,2.141196,0.947017,0.061390,-0.828317,-0.058262,-0.553830,-0.002116,0.001119,0.000511,-0.002229,0.020700,0.076350,-0.012492,0.547672,0.069075
1403715275642142976,0.879367,2.141200,0.947020,0.061380,-0.828309,-0.058250,-0.553844,-0.002254,0.000571,0.000596,-0.002229,0.020700,0.076350,-0.012492,0.547672,0.069075
1403715275647142912,0.879354,2.141203,0.947023,0.061362,-0.828297,-0.058232,-0.553866,-0.002604,0.000591,0.000640,-0.002229,0.020700,0.076350,-0.012492,0.547672,0.069075
1403715275652143104,0.879395,2.141139,0.947007,0.061353,-0.828287,-0.058221,-0.553884,-0.000488,-0.001642,-0.000743,-0.002229,0.020700,0.076350,-0.012492,0.547672,0.069075
1403715275657143040,0.879393,2.141134,0.947001,0.061353,-0.828285,-0.058204,-0.553888,-0.000432,-0.000691,-0.001626,-0.002229,0.020700,0.076350,-0.012492,0.547672,0.069075
1403715275662142976,0.879391,2.141133,0.946992,0.061367,-0.828289,-0.058200,-0.553881,-0.000556,0.000626,-0.002025,-0.002229,0.020700,0.076350,-0.012492,0.547672,0.069075
1403715275667143168,0.879387,2.141140,0.946982,0.061388,-0.828303,-0.058221,-0.553856,-0.000722,0.001933,-0.001832,-0.002229,0.020700,0.076350,-0.012492,0.547672,0.069075
1403715275672143104,0.879383,2.141150,0.946974,0.061411,-0.828313,-0.058250,-0.553834,-0.000942,0.002199,-0.001208,-0.002229,0.020700,0.076350,-0.012492,0.547672,0.069075
1403715275677143040,0.879378,2.141159,0.946970,0.061432,-0.828312,-0.058266,-0.553833,-0.001072,0.001530,-0.000725,-0.002229,0.020700,0.076350,-0.012492,0.547672,0.069075
1403715275682142976,0.879373,2.141165,0.946967,0.061438,-0.828307,-0.058265,-0.553840,-0.001093,0.000715,-0.000259,-0.002229,0.020700,0.076350,-0.012492,0.547672,0.069075
1403715275687143168,0.879367,2.141168,0.946967,0.061421,-0.828301,-0.058254,-0.553852,-0.001146,0.000280,0.000406,-0.002229,0.020700,0.076350,-0.012492,0.547672,0.069075
1403715275692142848,0.879361,2.141170,0.946970,0.061399,-0.828290,-0.058234,-0.553872,-0.001325,0.000554,0.000438,-0.002229,0.020700,0.076350,-0.012492,0.547672,0.069075
1403715275697143040,0.879354,2.141174,0.946970,0.061383,-0.828282,-0.058214,-0.553888,-0.001553,0.001368,-0.000324,-0.002229,0.020700,0.076350,-0.012492,0.547672,0.069075
1403715275702142976,0.879400,2.141117,0.946951,0.061382,-0.828284,-0.058217,-0.553886,0.000645,-0.000346,-0.001499,-0.002229,0.020700,0.076350,-0.012492,0.547673,0.069075
1403715275707143168,0.879403,2.141119,0.946943,0.061396,-0.828291,-0.058224,-0.553873,0.000396,0.000997,-0.001539,-0.002229,0.020700,0.076350,-0.012492,0.547673,0.069075
1403715275712142848,0.879403,2.141126,0.946936,0.061424,-0.828300,-0.058247,-0.553853,-0.000056,0.001858,-0.001259,-0.002229,0.020700,0.076350,-0.012492,0.547673,0.069075
1403715275717143040,0.879402,2.141135,0.946930,0.061460,-0.828305,-0.058265,-0.553839,-0.000515,0.001763,-0.000989,-0.002229,0.020700,0.076350,-0.012492,0.547673,0.069075
1403715275722142976,0.879399,2.141142,0.946926,0.061484,-0.828303,-0.058268,-0.553840,-0.000813,0.001035,-0.000878,-0.002229,0.020700,0.076350,-0.012492,0.547673,0.069075
1403715275727143168,0.879394,2.141145,0.946923,0.061481,-0.828301,-0.058257,-0.553845,-0.000982,0.000219,-0.000065,-0.002229,0.020700,0.076350,-0.012492,0.547673,0.069075
1403715275732142848,0.879389,2.141144,0.946925,0.061463,-0.828295,-0.058232,-0.553858,-0.000966,-0.000421,0.000733,-0.002229,0.020700,0.076350,-0.012492,0.547673,0.069075
1403715275737143040,0.879384,2.141143,0.946928,0.061436,-0.828286,-0.058203,-0.553877,-0.001077,-0.000275,0.000497,-0.002229,0.020700,0.076350,-0.012492,0.547673,0.069075
1403715275742142976,0.879378,2.141144,0.946929,0.061415,-0.828288,-0.058181,-0.553880,-0.001415,0.000663,-0.000311,-0.002229,0.020700,0.076350,-0.012492,0.547673,0.069075
1403715275747142912,0.879370,2.141151,0.946927,0.061411,-0.828298,-0.058170,-0.553866,-0.001706,0.002166,-0.000492,-0.002229,0.020700,0.076350,-0.012492,0.547673,0.069075
1403715275752142848,0.879414,2.141097,0.946906,0.061433,-0.828307,-0.058183,-0.553848,0.000118,0.000532,-0.001064,-0.002229,0.020700,0.076350,-0.012492,0.547673,0.069076
1403715275757143040,0.879414,2.141101,0.946901,0.061454,-0.828311,-0.058204,-0.553838,-0.000419,0.000901,-0.000887,-0.002229,0.020700,0.076350,-0.012492,0.547673,0.069076
1403715275762142976,0.879411,2.141104,0.946897,0.061477,-0.828309,-0.058230,-0.553836,-0.000719,0.000563,-0.000720,-0.002229,0.020700,0.076350,-0.012492,0.547673,0.069076
1403715275767142912,0.879407,2.141105,0.946894,0.061491,-0.828308,-0.058238,-0.553835,-0.000794,-0.000177,-0.000456,-0.002229,0.020700,0.076350,-0.012492,0.547673,0.069076
1403715275772142848,0.879403,2.141103,0.946894,0.061486,-0.828304,-0.058224,-0.553842,-0.000752,-0.000919,0.000357,-0.002229,0.020700,0.076350,-0.012492,0.547673,0.069076
1403715275777143040,0.879400,2.141097,0.946896,0.061468,-0.828297,-0.058197,-0.553858,-0.000718,-0.001243,0.000475,-0.002229,0.020700,0.076350,-0.012492,0.547673,0.069076
1403715275782143232,0.879395,2.141092,0.946897,0.061449,-0.828296,-0.058162,-0.553866,-0.001088,-0.000864,-0.000015,-0.002229,0.020700,0.076350,-0.012492,0.547673,0.069076
1403715275787142912,0.879389,2.141090,0.946897,0.061429,-0.828304,-0.058135,-0.553859,-0.001326,0.000111,-0.000356,-0.002229,0.020700,0.076350,-0.012492,0.547673,0.069076
1403715275792143104,0.879382,2.141094,0.946895,0.061417,-0.828314,-0.058124,-0.553846,-0.001331,0.001399,-0.000272,-0.002229,0.020700,0.076350,-0.012492,0.547673,0.069076
1403715275797143040,0.879375,2.141104,0.946895,0.061427,-0.828323,-0.058131,-0.553831,-0.001742,0.002688,0.000179,-0.002229,0.020700,0.076350,-0.012492,0.547673,0.069076
1403715275802142976,0.879418,2.141052,0.946876,0.061453,-0.828327,-0.058164,-0.553819,-0.000048,0.000415,-0.000501,-0.002229,0.020700,0.076350,-0.012493,0.547674,0.069076
1403715275807142912,0.879417,2.141053,0.946874,0.061484,-0.828322,-0.058187,-0.553819,-0.000287,0.000145,-0.000271,-0.002229,0.020700,0.076350,-0.012493,0.547674,0.069076
1403715275812143104,0.879416,2.141051,0.946874,0.061508,-0.828316,-0.058185,-0.553826,-0.000239,-0.000918,0.000196,-0.002229,0.020700,0.076350,-0.012493,0.547674,0.069076
1403715275817143040,0.879415,2.141044,0.946877,0.061507,-0.828306,-0.058155,-0.553844,-0.000173,-0.002012,0.000965,-0.002229,0.020700,0.076350,-0.012493,0.547674,0.069076
1403715275822142976,0.879414,2.141034,0.946882,0.061481,-0.828292,-0.058125,-0.553871,-0.000191,-0.002000,0.001161,-0.002229,0.020700,0.076350,-0.012493,0.547674,0.069076
1403715275827142912,0.879412,2.141026,0.946887,0.061454,-0.828283,-0.058104,-0.553890,-0.000530,-0.001228,0.000711,-0.002229,0.020700,0.076350,-0.012493,0.547674,0.069076
1403715275832143104,0.879409,2.141023,0.946889,0.061439,-0.828279,-0.058096,-0.553898,-0.000824,-0.000175,0.000169,-0.002229,0.020700,0.076350,-0.012493,0.547674,0.069076
1403715275837143040,0.879404,2.141025,0.946890,0.061441,-0.828280,-0.058105,-0.553897,-0.001160,0.001113,0.000387,-0.002229,0.020700,0.076350,-0.012493,0.547674,0.069076
1403715275842142976,0.879397,2.141034,0.946894,0.061464,-0.828276,-0.058126,-0.553897,-0.001761,0.002392,0.001311,-0.002229,0.020700,0.076350,-0.012493,0.547674,0.069076
1403715275847142912,0.879387,2.141048,0.946903,0.061499,-0.828262,-0.058154,-0.553911,-0.002303,0.003164,0.002160,-0.002229,0.020700,0.076350,-0.012493,0.547674,0.069076
1403715275852143104,0.879427,2.140997,0.946894,0.061542,-0.828238,-0.058185,-0.553940,-0.000427,-0.000253,0.001570,-0.002229,0.020700,0.076350,-0.012493,0.547674,0.069076
1403715275857143040,0.879425,2.140993,0.946903,0.061559,-0.828222,-0.058180,-0.553962,-0.000543,-0.001555,0.002062,-0.002229,0.020700,0.076350,-0.012493,0.547674,0.069076
1403715275862142976,0.879422,2.140983,0.946915,0.061544,-0.828206,-0.058158,-0.553990,-0.000558,-0.002382,0.002473,-0.002229,0.020700,0.076350,-0.012493,0.547674,0.069076
1403715275867142912,0.879419,2.140972,0.946926,0.061517,-0.828194,-0.058124,-0.554015,-0.000686,-0.001882,0.001852,-0.002229,0.020700,0.076350,-0.012493,0.547674,0.069076
1403715275872143104,0.879415,2.140966,0.946934,0.061487,-0.828194,-0.058098,-0.554020,-0.000976,-0.000396,0.001333,-0.002229,0.020700,0.076350,-0.012493,0.547674,0.069076
1403715275877142784,0.879409,2.140968,0.946940,0.061485,-0.828199,-0.058090,-0.554014,-0.001163,0.001135,0.001189,-0.002229,0.020700,0.076350,-0.012493,0.547674,0.069076
1403715275882142976,0.879403,2.140978,0.946948,0.061511,-0.828201,-0.058103,-0.554008,-0.001419,0.002590,0.002137,-0.002229,0.020700,0.076350,-0.012493,0.547674,0.069076
1403715275887142912,0.879395,2.140992,0.946961,0.061552,-0.828190,-0.058123,-0.554017,-0.001714,0.003124,0.003129,-0.002229,0.020700,0.076350,-0.012493,0.547674,0.069076
1403715275892143104,0.879386,2.141006,0.946977,0.061591,-0.828173,-0.058138,-0.554036,-0.001946,0.002459,0.003159,-0.002229,0.020700,0.076350,-0.012493,0.547674,0.069076
1403715275897142784,0.879376,2.141015,0.946994,0.061597,-0.828158,-0.058137,-0.554058,-0.002105,0.001313,0.003592,-0.002229,0.020700,0.076350,-0.012493,0.547674,0.069076
1403715275902142976,0.879417,2.140960,0.946994,0.061575,-0.828143,-0.058139,-0.554082,-0.000081,-0.002194,0.002872,-0.002229,0.020700,0.076350,-0.012493,0.547675,0.069076
1403715275907143168,0.879416,2.140950,0.947008,0.061542,-0.828140,-0.058119,-0.554093,-0.000417,-0.001665,0.002706,-0.002229,0.020700,0.076350,-0.012493,0.547675,0.069076
1403715275912143104,0.879413,2.140946,0.947022,0.061520,-0.828141,-0.058107,-0.554095,-0.000877,0.000218,0.002948,-0.002229,0.020700,0.076350,-0.012493,0.547675,0.069076
1403715275917143040,0.879407,2.140952,0.947039,0.061519,-0.828137,-0.058119,-0.554100,-0.001411,0.001871,0.004044,-0.002229,0.020700,0.076350,-0.012493,0.547675,0.069076
1403715275922142976,0.879399,2.140962,0.947066,0.061551,-0.828109,-0.058144,-0.554135,-0.001748,0.002128,0.006734,-0.002229,0.020700,0.076350,-0.012493,0.547675,0.069076
1403715275927143168,0.879389,2.140970,0.947106,0.061580,-0.828040,-0.058159,-0.554233,-0.002364,0.001109,0.009023,-0.002229,0.020700,0.076350,-0.012493,0.547675,0.069076
1403715275932142848,0.879375,2.140973,0.947150,0.061564,-0.827959,-0.058161,-0.554356,-0.003190,0.000242,0.008582,-0.002229,0.020700,0.076350,-0.012493,0.547675,0.069076
1403715275937143040,0.879358,2.140974,0.947188,0.061524,-0.827904,-0.058146,-0.554444,-0.003520,0.000019,0.006566,-0.002229,0.020700,0.076350,-0.012493,0.547675,0.069076
1403715275942142976,0.879339,2.140975,0.947216,0.061495,-0.827875,-0.058122,-0.554494,-0.003967,0.000698,0.004899,-0.002229,0.020700,0.076350,-0.012493,0.547675,0.069076
1403715275947143168,0.879318,2.140981,0.947239,0.061496,-0.827864,-0.058094,-0.554513,-0.004548,0.001461,0.004254,-0.002229,0.020700,0.076350,-0.012493,0.547675,0.069076
1403715275952142848,0.879346,2.140930,0.947245,0.061534,-0.827845,-0.058081,-0.554538,-0.002661,-0.000929,0.003806,-0.002229,0.020700,0.076350,-0.012493,0.547675,0.069077
1403715275957143040,0.879333,2.140927,0.947263,0.061556,-0.827820,-0.058070,-0.554574,-0.002677,-0.000279,0.003572,-0.002229,0.020700,0.076350,-0.012493,0.547675,0.069077
1403715275962142976,0.879320,2.140928,0.947279,0.061559,-0.827807,-0.058084,-0.554591,-0.002206,0.000483,0.002515,-0.002229,0.020700,0.076350,-0.012493,0.547675,0.069077
1403715275967143168,0.879311,2.140933,0.947289,0.061563,-0.827814,-0.058107,-0.554579,-0.001615,0.001583,0.001841,-0.002229,0.020700,0.076350,-0.012493,0.547675,0.069077
1403715275972142848,0.879304,2.140943,0.947300,0.061589,-0.827827,-0.058121,-0.554555,-0.001301,0.002346,0.002240,-0.002229,0.020700,0.076350,-0.012493,0.547675,0.069077
1403715275977143040,0.879298,2.140953,0.947314,0.061623,-0.827824,-0.058119,-0.554555,-0.000875,0.001742,0.003607,-0.002229,0.020700,0.076350,-0.012493,0.547675,0.069077
1403715275982142976,0.879294,2.140961,0.947337,0.061628,-0.827798,-0.058102,-0.554595,-0.000718,0.001216,0.005499,-0.002229,0.020700,0.076350,-0.012493,0.547675,0.069077
1403715275987142912,0.879290,2.140968,0.947363,0.061600,-0.827775,-0.058086,-0.554636,-0.000801,0.001611,0.005010,-0.002229,0.020700,0.076350,-0.012493,0.547675,0.069077
1403715275992142848,0.879287,2.140979,0.947386,0.061581,-0.827771,-0.058077,-0.554643,-0.000557,0.002890,0.004028,-0.002229,0.020700,0.076350,-0.012493,0.547675,0.069077
1403715275997143040,0.879284,2.140996,0.947406,0.061605,-0.827766,-0.058064,-0.554650,-0.000594,0.003934,0.004161,-0.002229,0.020700,0.076350,-0.012493,0.547675,0.069077
1403715276002142976,0.879332,2.140955,0.947412,0.061668,-0.827756,-0.058041,-0.554660,0.001242,0.000327,0.003906,-0.002229,0.020700,0.076350,-0.012493,0.547676,0.069077
1403715276007142912,0.879338,2.140951,0.947433,0.061684,-0.827749,-0.057985,-0.554675,0.001269,-0.001658,0.004654,-0.002229,0.020700,0.076350,-0.012493,0.547676,0.069077
1403715276012142848,0.879343,2.140943,0.947453,0.061629,-0.827761,-0.057932,-0.554669,0.000799,-0.001738,0.003253,-0.002229,0.020700,0.076350,-0.012493,0.547676,0.069077
1403715276017143040,0.879346,2.140939,0.947468,0.061550,-0.827799,-0.057905,-0.554623,0.000186,0.000310,0.002599,-0.002229,0.020700,0.076350,-0.012493,0.547676,0.069077
1403715276022142976,0.879346,2.140948,0.947485,0.061519,-0.827820,-0.057914,-0.554595,0.000037,0.003243,0.004203,-0.002229,0.020700,0.076350,-0.012493,0.547676,0.069077
1403715276027142912,0.879346,2.140971,0.947508,0.061550,-0.827804,-0.057969,-0.554610,-0.000313,0.005797,0.005150,-0.002229,0.020700,0.076350,-0.012493,0.547676,0.069077
1403715276032143104,0.879343,2.141002,0.947532,0.061591,-0.827779,-0.058067,-0.554633,-0.000583,0.006674,0.004259,-0.002229,0.020700,0.076350,-0.012493,0.547676,0.069077
1403715276037143040,0.879340,2.141032,0.947548,0.061625,-0.827777,-0.058152,-0.554622,-0.000669,0.005527,0.002381,-0.002229,0.020700,0.076350,-0.012493,0.547676,0.069077
1403715276042143232,0.879337,2.141053,0.947556,0.061652,-0.827794,-0.058186,-0.554590,-0.000605,0.002527,0.000853,-0.002229,0.020700,0.076350,-0.012493,0.547676,0.069077
1403715276047142912,0.879334,2.141059,0.947561,0.061643,-0.827807,-0.058162,-0.554575,-0.000552,-0.000147,0.001064,-0.002229,0.020700,0.076350,-0.012493,0.547676,0.069077
1403715276052143104,0.879383,2.141000,0.947549,0.061576,-0.827807,-0.058120,-0.554586,0.001688,-0.002949,-0.000469,-0.002229,0.020700,0.076350,-0.012493,0.547677,0.069077
1403715276057143040,0.879392,2.140989,0.947540,0.061526,-0.827853,-0.058058,-0.554530,0.002173,-0.001309,-0.003279,-0.002229,0.020700,0.076350,-0.012493,0.547677,0.069077
1403715276062142976,0.879404,2.140988,0.947519,0.061530,-0.827917,-0.058013,-0.554439,0.002501,0.000655,-0.004993,-0.002229,0.020700,0.076350,-0.012493,0.547677,0.069077
1403715276067142912,0.879416,2.140993,0.947494,0.061576,-0.827983,-0.057977,-0.554339,0.002453,0.001632,-0.004885,-0.002229,0.020700,0.076350,-0.012493,0.547677,0.069077
1403715276072143104,0.879428,2.141003,0.947474,0.061617,-0.828032,-0.057970,-0.554261,0.002297,0.002114,-0.003278,-0.002229,0.020700,0.076350,-0.012493,0.547677,0.069077
1403715276077143040,0.879439,2.141014,0.947458,0.061624,-0.828056,-0.058004,-0.554222,0.002056,0.002486,-0.003021,-0.002229,0.020700,0.076350,-0.012493,0.547677,0.069077
1403715276082142976,0.879449,2.141026,0.947444,0.061620,-0.828082,-0.058028,-0.554180,0.001898,0.002142,-0.002620,-0.002229,0.020700,0.076350,-0.012493,0.547677,0.069077
1403715276087142912,0.879458,2.141035,0.947434,0.061627,-0.828100,-0.058019,-0.554153,0.001672,0.001398,-0.001272,-0.002229,0.020700,0.076350,-0.012493,0.547677,0.069077
1403715276092143104,0.879465,2.141042,0.947429,0.061626,-0.828083,-0.058013,-0.554181,0.001018,0.001699,-0.000929,-0.002229,0.020700,0.076350,-0.012493,0.547677,0.069077
1403715276097143040,0.879468,2.141054,0.947421,0.061624,-0.828065,-0.058024,-0.554206,0.000408,0.002891,-0.002023,-0.002229,0.020700,0.076350,-0.012493,0.547677,0.069077
1403715276102142976,0.879518,2.141013,0.947399,0.061613,-0.828079,-0.058073,-0.554181,0.001652,0.000824,-0.002877,-0.002229,0.020700,0.076350,-0.012493,0.547677,0.069077
1403715276107142912,0.879524,2.141014,0.947385,0.061588,-0.828100,-0.058081,-0.554152,0.000622,-0.000392,-0.002864,-0.002229,0.020700,0.076350,-0.012493,0.547677,0.069077
1403715276112143104,0.879525,2.141009,0.947371,0.061556,-0.828108,-0.058052,-0.554146,-0.000235,-0.001673,-0.002521,-0.002229,0.020700,0.076350,-0.012493,0.547677,0.069077
1403715276117143040,0.879523,2.141004,0.947357,0.061520,-0.828102,-0.058016,-0.554162,-0.000600,-0.000204,-0.003082,-0.002229,0.020700,0.076350,-0.012493,0.547677,0.069077
1403715276122142976,0.879518,2.141010,0.947340,0.061520,-0.828119,-0.058003,-0.554139,-0.001371,0.002456,-0.004042,-0.002229,0.020700,0.076350,-0.012493,0.547677,0.069077
1403715276127142912,0.879509,2.141024,0.947321,0.061558,-0.828138,-0.058018,-0.554105,-0.002212,0.003096,-0.003475,-0.002229,0.020700,0.076350,-0.012493,0.547677,0.069077
1403715276132143104,0.879497,2.141036,0.947306,0.061608,-0.828135,-0.058025,-0.554104,-0.002638,0.001738,-0.002576,-0.002229,0.020700,0.076350,-0.012493,0.547677,0.069077
1403715276137142784,0.879483,2.141043,0.947294,0.061637,-0.828108,-0.058008,-0.554142,-0.003095,0.001195,-0.002087,-0.002229,0.020700,0.076350,-0.012493,0.547677,0.069077
1403715276142142976,0.879467,2.141052,0.947281,0.061646,-0.828087,-0.057993,-0.554174,-0.003022,0.002276,-0.003323,-0.002229,0.020700,0.076350,-0.012493,0.547677,0.069077
1403715276147142912,0.879452,2.141065,0.947265,0.061663,-0.828093,-0.057984,-0.554164,-0.002985,0.003118,-0.002860,-0.002229,0.020700,0.076350,-0.012493,0.547677,0.069077
1403715276152143104,0.879488,2.141024,0.947237,0.061694,-0.828084,-0.057979,-0.554174,-0.001113,0.000085,-0.003162,-0.002229,0.020700,0.076350,-0.012493,0.547678,0.069078
1403715276157143040,0.879481,2.141022,0.947224,0.061702,-0.828066,-0.057953,-0.554203,-0.001618,-0.000845,-0.002182,-0.002229,0.020700,0.076350,-0.012493,0.547678,0.069078
1403715276162142976,0.879473,2.141017,0.947214,0.061677,-0.828039,-0.057934,-0.554248,-0.001535,-0.000971,-0.001799,-0.002229,0.020700,0.076350,-0.012493,0.547678,0.069078
1403715276167143168,0.879466,2.141013,0.947202,0.061630,-0.828045,-0.057937,-0.554244,-0.001262,-0.000514,-0.002749,-0.002229,0.020700,0.076350,-0.012493,0.547678,0.069078
1403715276172143104,0.879459,2.141012,0.947188,0.061587,-0.828065,-0.057955,-0.554217,-0.001374,0.000139,-0.002818,-0.002229,0.020700,0.076350,-0.012493,0.547678,0.069078
1403715276177143040,0.879451,2.141015,0.947176,0.061576,-0.828085,-0.057966,-0.554187,-0.001846,0.000847,-0.002011,-0.002229,0.020700,0.076350,-0.012493,0.547678,0.069078
1403715276182142976,0.879440,2.141021,0.947171,0.061575,-0.828083,-0.057990,-0.554187,-0.002553,0.001682,-0.000095,-0.002229,0.020700,0.076350,-0.012493,0.547678,0.069078
1403715276187143168,0.879428,2.141031,0.947170,0.061564,-0.828071,-0.058036,-0.554202,-0.002610,0.002028,-0.000396,-0.002229,0.020700,0.076350,-0.012493,0.547678,0.069078
1403715276192142848,0.879415,2.141040,0.947165,0.061542,-0.828085,-0.058082,-0.554179,-0.002437,0.001841,-0.001350,-0.002229,0.020700,0.076350,-0.012493,0.547678,0.069078
1403715276197143040,0.879402,2.141049,0.947158,0.061533,-0.828111,-0.058099,-0.554139,-0.002554,0.001603,-0.001630,-0.002229,0.020700,0.076350,-0.012493,0.547678,0.069078
1403715276202142976,0.879438,2.141002,0.947138,0.061553,-0.828120,-0.058102,-0.554123,-0.000734,-0.001126,-0.000798,-0.002229,0.020700,0.076350,-0.012493,0.547678,0.069078
1403715276207143168,0.879434,2.140997,0.947136,0.061582,-0.828109,-0.058072,-0.554140,-0.000809,-0.000805,0.000127,-0.002229,0.020700,0.076350,-0.012493,0.547678,0.069078
1403715276212142848,0.879429,2.140995,0.947135,0.061603,-0.828103,-0.058037,-0.554149,-0.001062,-0.000147,-0.000521,-0.002229,0.020700,0.076350,-0.012493,0.547678,0.069078
1403715276217143040,0.879424,2.140995,0.947130,0.061593,-0.828109,-0.058016,-0.554144,-0.001239,0.000244,-0.001480,-0.002229,0.020700,0.076350,-0.012493,0.547678,0.069078
1403715276222142976,0.879418,2.140997,0.947121,0.061592,-0.828128,-0.057995,-0.554118,-0.001166,0.000673,-0.002364,-0.002229,0.020700,0.076350,-0.012493,0.547678,0.069078
1403715276227143168,0.879412,2.141002,0.947113,0.061638,-0.828138,-0.057951,-0.554103,-0.001022,0.001245,-0.000807,-0.002229,0.020700,0.076350,-0.012493,0.547678,0.069078
1403715276232142848,0.879407,2.141009,0.947110,0.061685,-0.828126,-0.057911,-0.554120,-0.000997,0.001699,-0.000125,-0.002229,0.020700,0.076350,-0.012493,0.547678,0.069078
1403715276237143040,0.879402,2.141018,0.947108,0.061715,-0.828124,-0.057898,-0.554120,-0.001108,0.001875,-0.000970,-0.002229,0.020700,0.076350,-0.012493,0.547678,0.069078
1403715276242142976,0.879396,2.141029,0.947101,0.061727,-0.828126,-0.057912,-0.554115,-0.001365,0.002268,-0.001695,-0.002229,0.020700,0.076350,-0.012493,0.547678,0.069078
1403715276247142912,0.879388,2.141040,0.947091,0.061726,-0.828139,-0.057939,-0.554093,-0.001603,0.002415,-0.002376,-0.002229,0.020700,0.076350,-0.012493,0.547678,0.069078
1403715276252142848,0.879427,2.140994,0.947060,0.061739,-0.828138,-0.057968,-0.554089,0.000419,-0.000961,-0.001592,-0.002229,0.020700,0.076350,-0.012493,0.547679,0.069078
1403715276257143040,0.879429,2.140986,0.947054,0.061732,-0.828120,-0.057956,-0.554119,0.000230,-0.002143,-0.000905,-0.002229,0.020700,0.076350,-0.012493,0.547679,0.069078
1403715276262142976,0.879429,2.140974,0.947044,0.061684,-0.828121,-0.057949,-0.554123,-0.000166,-0.002694,-0.002915,-0.002229,0.020700,0.076350,-0.012493,0.547679,0.069078
1403715276267142912,0.879428,2.140962,0.947028,0.061624,-0.828137,-0.057955,-0.554106,-0.000346,-0.001808,-0.003510,-0.002229,0.020700,0.076350,-0.012493,0.547679,0.069078
1403715276272142848,0.879426,2.140957,0.947012,0.061587,-0.828153,-0.057978,-0.554084,-0.000527,-0.000208,-0.003152,-0.002229,0.020700,0.076350,-0.012493,0.547679,0.069078
1403715276277143040,0.879423,2.140959,0.947000,0.061575,-0.828167,-0.058013,-0.554060,-0.000734,0.000700,-0.001548,-0.002229,0.020700,0.076350,-0.012493,0.547679,0.069078
1403715276282143232,0.879419,2.140962,0.946996,0.061579,-0.828144,-0.058028,-0.554092,-0.000613,0.000720,-0.000139,-0.002229,0.020700,0.076350,-0.012493,0.547679,0.069078
1403715276287142912,0.879416,2.140966,0.946991,0.061576,-0.828126,-0.058026,-0.554119,-0.000541,0.000745,-0.001805,-0.002229,0.020700,0.076350,-0.012493,0.547679,0.069078
1403715276292143104,0.879413,2.140971,0.946979,0.061566,-0.828145,-0.058014,-0.554094,-0.000698,0.001457,-0.002912,-0.002229,0.020700,0.076350,-0.012493,0.547679,0.069078
1403715276297143040,0.879409,2.140981,0.946965,0.061581,-0.828176,-0.057996,-0.554048,-0.000977,0.002429,-0.002694,-0.002229,0.020700,0.076350,-0.012493,0.547679,0.069078
1403715276302142976,0.879448,2.140938,0.946932,0.061638,-0.828191,-0.057996,-0.554020,0.000420,0.000327,-0.001708,-0.002229,0.020700,0.076350,-0.012493,0.547680,0.069079
1403715276307142912,0.879449,2.140938,0.946926,0.061683,-0.828173,-0.057978,-0.554042,-0.000025,-0.000079,-0.000560,-0.002229,0.020700,0.076350,-0.012493,0.547680,0.069079
1403715276312143104,0.879448,2.140936,0.946921,0.061699,-0.828164,-0.057946,-0.554058,-0.000209,-0.000888,-0.001387,-0.002229,0.020700,0.076350,-0.012493,0.547680,0.069079
1403715276317143040,0.879447,2.140932,0.946914,0.061691,-0.828175,-0.057902,-0.554047,-0.000220,-0.000743,-0.001539,-0.002229,0.020700,0.076350,-0.012493,0.547680,0.069079
1403715276322142976,0.879445,2.140931,0.946904,0.061683,-0.828196,-0.057861,-0.554021,-0.000602,0.000304,-0.002516,-0.002229,0.020700,0.076350,-0.012493,0.547680,0.069079
1403715276327142912,0.879441,2.140935,0.946893,0.061701,-0.828236,-0.057824,-0.553963,-0.000981,0.001306,-0.001899,-0.002229,0.020700,0.076350,-0.012493,0.547680,0.069079
1403715276332143104,0.879435,2.140943,0.946891,0.061747,-0.828234,-0.057806,-0.553962,-0.001256,0.002134,0.001421,-0.002229,0.020700,0.076350,-0.012493,0.547680,0.069079
1403715276337143040,0.879429,2.140955,0.946900,0.061779,-0.828203,-0.057820,-0.554004,-0.001475,0.002550,0.002167,-0.002229,0.020700,0.076350,-0.012493,0.547680,0.069079
1403715276342142976,0.879422,2.140968,0.946909,0.061766,-0.828195,-0.057863,-0.554012,-0.001245,0.002540,0.001436,-0.002229,0.020700,0.076350,-0.012493,0.547680,0.069079
1403715276347142912,0.879415,2.140980,0.946915,0.061738,-0.828201,-0.057895,-0.554004,-0.001580,0.002369,0.000897,-0.002229,0.020700,0.076350,-0.012493,0.547680,0.069079
1403715276352143104,0.879448,2.140931,0.946895,0.061724,-0.828214,-0.057928,-0.553981,-0.000455,-0.000202,0.000251,-0.002229,0.020700,0.076350,-0.012493,0.547680,0.069079
1403715276357143040,0.879446,2.140930,0.946901,0.061717,-0.828224,-0.057938,-0.553968,-0.000711,-0.000478,0.002380,-0.002229,0.020700,0.076350,-0.012493,0.547680,0.069079
1403715276362142976,0.879441,2.140926,0.946914,0.061710,-0.828201,-0.057935,-0.554002,-0.001266,-0.001085,0.002675,-0.002229,0.020700,0.076350,-0.012493,0.547680,0.069079
1403715276367142912,0.879434,2.140921,0.946925,0.061673,-0.828182,-0.057939,-0.554034,-0.001313,-0.000693,0.001891,-0.002229,0.020700,0.076350,-0.012493,0.547680,0.069079
1403715276372143104,0.879428,2.140921,0.946933,0.061627,-0.828181,-0.057953,-0.554039,-0.001080,0.000458,0.001034,-0.002229,0.020700,0.076350,-0.012493,0.547680,0.069079
1403715276377142784,0.879421,2.140925,0.946935,0.061599,-0.828201,-0.057968,-0.554012,-0.001688,0.001361,-0.000176,-0.002229,0.020700,0.076350,-0.012493,0.547680,0.069079
1403715276382142976,0.879411,2.140934,0.946936,0.061600,-0.828222,-0.057963,-0.553980,-0.002226,0.002112,0.000755,-0.002229,0.020700,0.076350,-0.012493,0.547680,0.069079
1403715276387142912,0.879400,2.140946,0.946944,0.061630,-0.828219,-0.057938,-0.553984,-0.002417,0.002535,0.002483,-0.002229,0.020700,0.076350,-0.012493,0.547680,0.069079
1403715276392143104,0.879388,2.140959,0.946957,0.061662,-0.828202,-0.057919,-0.554007,-0.002376,0.002723,0.002620,-0.002229,0.020700,0.076350,-0.012493,0.547680,0.069079
1403715276397142784,0.879377,2.140973,0.946968,0.061692,-0.828190,-0.057900,-0.554025,-0.001977,0.003105,0.001874,-0.002229,0.020700,0.076350,-0.012493,0.547680,0.069079
1403715276402142976,0.879409,2.140929,0.946951,0.061719,-0.828188,-0.057912,-0.554023,-0.000281,0.001187,-0.000460,-0.002229,0.020700,0.076350,-0.012493,0.547681,0.069079
1403715276407143168,0.879406,2.140936,0.946946,0.061726,-0.828217,-0.057924,-0.553978,-0.000702,0.001783,-0.001251,-0.002229,0.020700,0.076350,-0.012493,0.547681,0.069079
1403715276412143104,0.879402,2.140945,0.946943,0.061752,-0.828233,-0.057924,-0.553950,-0.001012,0.001633,-0.000009,-0.002229,0.020700,0.076350,-0.012493,0.547681,0.069079
1403715276417143040,0.879396,2.140952,0.946947,0.061784,-0.828227,-0.057905,-0.553958,-0.001571,0.001328,0.001429,-0.002229,0.020700,0.076350,-0.012493,0.547681,0.069079
1403715276422142976,0.879387,2.140958,0.946954,0.061787,-0.828213,-0.057881,-0.553981,-0.001807,0.000999,0.001585,-0.002229,0.020700,0.076350,-0.012493,0.547681,0.069079
1403715276427143168,0.879379,2.140963,0.946962,0.061762,-0.828199,-0.057862,-0.554007,-0.001539,0.000834,0.001308,-0.002229,0.020700,0.076350,-0.012493,0.547681,0.069079
1403715276432142848,0.879371,2.140970,0.946965,0.061742,-0.828201,-0.057855,-0.554007,-0.001421,0.002114,0.000011,-0.002229,0.020700,0.076350,-0.012493,0.547681,0.069079
1403715276437143040,0.879364,2.140986,0.946964,0.061722,-0.828222,-0.057877,-0.553976,-0.001711,0.004283,-0.000261,-0.002229,0.020700,0.076350,-0.012493,0.547681,0.069079
1403715276442142976,0.879354,2.141010,0.946966,0.061728,-0.828233,-0.057922,-0.553953,-0.002320,0.005218,0.001116,-0.002229,0.020700,0.076350,-0.012493,0.547681,0.069079
1403715276447143168,0.879340,2.141034,0.946975,0.061776,-0.828227,-0.057946,-0.553955,-0.002988,0.004286,0.002285,-0.002229,0.020700,0.076350,-0.012493,0.547681,0.069079
1403715276452142848,0.879364,2.140987,0.946971,0.061804,-0.828198,-0.057977,-0.553992,-0.001589,-0.000213,0.002326,-0.002229,0.020700,0.076350,-0.012493,0.547682,0.069080
1403715276457143040,0.879356,2.140983,0.946980,0.061775,-0.828181,-0.057962,-0.554021,-0.001589,-0.001354,0.001569,-0.002229,0.020700,0.076350,-0.012493,0.547682,0.069080
1403715276462142976,0.879348,2.140979,0.946985,0.061730,-0.828184,-0.057935,-0.554025,-0.001754,-0.000504,0.000112,-0.002229,0.020700,0.076350,-0.012493,0.547682,0.069080
1403715276467143168,0.879338,2.140982,0.946986,0.061709,-0.828199,-0.057924,-0.554007,-0.002083,0.001890,0.000444,-0.002229,0.020700,0.076350,-0.012493,0.547682,0.069080
1403715276472142848,0.879326,2.140995,0.946992,0.061731,-0.828211,-0.057934,-0.553985,-0.002709,0.003278,0.001879,-0.002229,0.020700,0.076350,-0.012493,0.547682,0.069080
1403715276477143040,0.879311,2.141010,0.947009,0.061779,-0.828194,-0.057943,-0.554004,-0.003321,0.002761,0.004889,-0.002229,0.020700,0.076350,-0.012493,0.547682,0.069080
1403715276482142976,0.879293,2.141021,0.947038,0.061803,-0.828144,-0.057944,-0.554076,-0.003879,0.001662,0.007031,-0.002229,0.020700,0.076350,-0.012493,0.547682,0.069080
1403715276487142912,0.879273,2.141028,0.947073,0.061785,-0.828100,-0.057946,-0.554144,-0.004209,0.001294,0.006822,-0.002229,0.020700,0.076350,-0.012493,0.547682,0.069080
1403715276492142848,0.879252,2.141038,0.947108,0.061766,-0.828065,-0.057951,-0.554197,-0.004349,0.002348,0.007175,-0.002229,0.020700,0.076350,-0.012493,0.547682,0.069080
1403715276497143040,0.879229,2.141053,0.947144,0.061796,-0.828039,-0.057959,-0.554232,-0.004760,0.003924,0.007335,-0.002229,0.020700,0.076350,-0.012493,0.547682,0.069080
1403715276502142976,0.879243,2.141014,0.947163,0.061881,-0.828006,-0.057983,-0.554269,-0.003538,0.000714,0.006946,-0.002229,0.020700,0.076350,-0.012493,0.547683,0.069080
1403715276507142912,0.879224,2.141011,0.947198,0.061940,-0.827968,-0.057963,-0.554322,-0.003707,-0.001911,0.007214,-0.002229,0.020700,0.076350,-0.012493,0.547683,0.069080
1403715276512142848,0.879205,2.140998,0.947234,0.061931,-0.827943,-0.057931,-0.554363,-0.004066,-0.003543,0.007154,-0.002229,0.020700,0.076350,-0.012493,0.547683,0.069080
1403715276517143040,0.879184,2.140982,0.947270,0.061883,-0.827931,-0.057901,-0.554390,-0.004362,-0.002697,0.007103,-0.002229,0.020700,0.076350,-0.012493,0.547683,0.069080
1403715276522142976,0.879163,2.140975,0.947303,0.061861,-0.827920,-0.057892,-0.554410,-0.004186,-0.000328,0.006217,-0.002229,0.020700,0.076350,-0.012493,0.547683,0.069080
1403715276527142912,0.879142,2.140979,0.947333,0.061911,-0.827922,-0.057901,-0.554401,-0.003847,0.001984,0.005862,-0.002229,0.020700,0.076350,-0.012493,0.547683,0.069080
1403715276532143104,0.879124,2.140990,0.947364,0.061986,-0.827914,-0.057925,-0.554401,-0.003364,0.002358,0.006301,-0.002229,0.020700,0.076350,-0.012493,0.547683,0.069080
1403715276537143040,0.879110,2.140996,0.947393,0.062006,-0.827912,-0.057945,-0.554401,-0.002609,0.000128,0.005489,-0.002229,0.020700,0.076350,-0.012493,0.547683,0.069080
1403715276542143232,0.879098,2.140990,0.947417,0.061938,-0.827938,-0.057947,-0.554368,-0.001922,-0.002277,0.004160,-0.002229,0.020700,0.076350,-0.012493,0.547683,0.069080
1403715276547142912,0.879090,2.140979,0.947434,0.061838,-0.827973,-0.057916,-0.554331,-0.001300,-0.002480,0.002551,-0.002229,0.020700,0.076350,-0.012493,0.547683,0.069080
1403715276552143104,0.879124,2.140914,0.947428,0.061771,-0.828008,-0.057901,-0.554288,0.000495,-0.002197,0.001817,-0.002229,0.020700,0.076350,-0.012493,0.547683,0.069080
1403715276557143040,0.879125,2.140913,0.947439,0.061787,-0.828020,-0.057874,-0.554271,0.000193,0.001586,0.002636,-0.002229,0.020700,0.076350,-0.012493,0.547683,0.069080
1403715276562142976,0.879126,2.140926,0.947449,0.061845,-0.828018,-0.057897,-0.554264,-0.000091,0.003751,0.001376,-0.002229,0.020700,0.076350,-0.012493,0.547683,0.069080
1403715276567142912,0.879125,2.140945,0.947454,0.061916,-0.828025,-0.057961,-0.554239,-0.000208,0.003918,0.000395,-0.002229,0.020700,0.076350,-0.012493,0.547683,0.069080
1403715276572143104,0.879124,2.140961,0.947454,0.061979,-0.828030,-0.058014,-0.554219,-0.000152,0.002419,-0.000209,-0.002229,0.020700,0.076350,-0.012493,0.547683,0.069080
1403715276577143040,0.879122,2.140968,0.947452,0.061990,-0.828032,-0.058033,-0.554213,-0.000440,0.000210,-0.000607,-0.002229,0.020700,0.076350,-0.012493,0.547683,0.069080
1403715276582142976,0.879119,2.140965,0.947447,0.061965,-0.828035,-0.058009,-0.554215,-0.000893,-0.001407,-0.001463,-0.002229,0.020700,0.076350,-0.012493,0.547683,0.069080
1403715276587142912,0.879114,2.140958,0.947436,0.061931,-0.828063,-0.057963,-0.554182,-0.001299,-0.001184,-0.003076,-0.002229,0.020700,0.076350,-0.012493,0.547683,0.069080
1403715276592143104,0.879106,2.140954,0.947418,0.061911,-0.828102,-0.057911,-0.554131,-0.001583,-0.000354,-0.003761,-0.002229,0.020700,0.076350,-0.012493,0.547683,0.069080
1403715276597143040,0.879098,2.140954,0.947401,0.061904,-0.828123,-0.057866,-0.554105,-0.001629,0.000219,-0.003297,-0.002229,0.020700,0.076350,-0.012493,0.547683,0.069080
1403715276602142976,0.879128,2.140888,0.947370,0.061865,-0.828119,-0.057892,-0.554112,-0.000027,-0.001501,-0.003297,-0.002229,0.020700,0.076350,-0.012493,0.547684,0.069081
1403715276607142912,0.879128,2.140885,0.947352,0.061833,-0.828128,-0.057904,-0.554102,-0.000022,0.000060,-0.003899,-0.002229,0.020700,0.076350,-0.012493,0.547684,0.069081
1403715276612143104,0.879127,2.140888,0.947331,0.061835,-0.828142,-0.057915,-0.554079,-0.000259,0.001304,-0.004258,-0.002229,0.020700,0.076350,-0.012493,0.547684,0.069081
1403715276617143040,0.879125,2.140896,0.947313,0.061875,-0.828145,-0.057929,-0.554068,-0.000397,0.001930,-0.003248,-0.002229,0.020700,0.076350,-0.012493,0.547684,0.069081
1403715276622142976,0.879123,2.140907,0.947299,0.061911,-0.828122,-0.057961,-0.554096,-0.000601,0.002245,-0.002047,-0.002229,0.020700,0.076350,-0.012493,0.547684,0.069081
1403715276627142912,0.879119,2.140918,0.947290,0.061913,-0.828091,-0.058007,-0.554137,-0.000694,0.002154,-0.001611,-0.002229,0.020700,0.076350,-0.012493,0.547684,0.069081
1403715276632143104,0.879115,2.140927,0.947282,0.061905,-0.828083,-0.058026,-0.554148,-0.000967,0.001436,-0.001768,-0.002229,0.020700,0.076350,-0.012493,0.547684,0.069081
1403715276637142784,0.879109,2.140931,0.947273,0.061903,-0.828089,-0.057998,-0.554142,-0.001420,0.000232,-0.001925,-0.002229,0.020700,0.076350,-0.012493,0.547684,0.069081
1403715276642142976,0.879101,2.140932,0.947263,0.061894,-0.828077,-0.057954,-0.554166,-0.001978,0.000074,-0.001762,-0.002229,0.020700,0.076350,-0.012493,0.547684,0.069081
1403715276647142912,0.879089,2.140936,0.947253,0.061883,-0.828076,-0.057927,-0.554170,-0.002668,0.001702,-0.002261,-0.002229,0.020700,0.076350,-0.012493,0.547684,0.069081
1403715276652143104,0.879111,2.140879,0.947229,0.061856,-0.828097,-0.057965,-0.554138,-0.001621,0.000008,-0.002378,-0.002229,0.020700,0.076350,-0.012493,0.547685,0.069081
1403715276657143040,0.879102,2.140878,0.947218,0.061859,-0.828124,-0.057951,-0.554098,-0.002091,-0.000450,-0.002041,-0.002229,0.020700,0.076350,-0.012493,0.547685,0.069081
1403715276662142976,0.879091,2.140876,0.947209,0.061872,-0.828147,-0.057904,-0.554068,-0.002297,-0.000588,-0.001422,-0.002229,0.020700,0.076350,-0.012493,0.547685,0.069081
1403715276667143168,0.879080,2.140877,0.947203,0.061883,-0.828157,-0.057869,-0.554056,-0.002147,0.001223,-0.000984,-0.002229,0.020700,0.076350,-0.012493,0.547685,0.069081
1403715276672143104,0.879069,2.140889,0.947200,0.061904,-0.828170,-0.057887,-0.554032,-0.002451,0.003543,-0.000175,-0.002229,0.020700,0.076350,-0.012493,0.547685,0.069081
1403715276677143040,0.879055,2.140908,0.947205,0.061936,-0.828172,-0.057937,-0.554020,-0.003103,0.003941,0.002183,-0.002229,0.020700,0.076350,-0.012493,0.547685,0.069081
1403715276682142976,0.879038,2.140923,0.947218,0.061967,-0.828156,-0.057960,-0.554038,-0.003565,0.002032,0.002850,-0.002229,0.020700,0.076350,-0.012493,0.547685,0.069081
1403715276687143168,0.879019,2.140930,0.947233,0.061971,-0.828125,-0.057951,-0.554086,-0.003988,0.000679,0.003219,-0.002229,0.020700,0.076350,-0.012493,0.547685,0.069081
1403715276692142848,0.878999,2.140934,0.947246,0.061953,-0.828104,-0.057935,-0.554121,-0.003899,0.001043,0.002132,-0.002229,0.020700,0.076350,-0.012493,0.547685,0.069081
1403715276697143040,0.878979,2.140940,0.947257,0.061928,-0.828113,-0.057937,-0.554110,-0.004238,0.001536,0.002343,-0.002229,0.020700,0.076350,-0.012493,0.547685,0.069081
1403715276702142976,0.878994,2.140878,0.947258,0.061872,-0.828102,-0.057985,-0.554127,-0.003583,-0.001497,0.002632,-0.002229,0.020700,0.076350,-0.012493,0.547686,0.069081
1403715276707143168,0.878975,2.140870,0.947272,0.061845,-0.828088,-0.057988,-0.554151,-0.004320,-0.001633,0.003178,-0.002229,0.020700,0.076350,-0.012493,0.547686,0.069081
1403715276712142848,0.878953,2.140864,0.947289,0.061829,-0.828057,-0.057990,-0.554199,-0.004139,-0.000856,0.003429,-0.002229,0.020700,0.076350,-0.012493,0.547686,0.069081
1403715276717143040,0.878933,2.140862,0.947306,0.061835,-0.828055,-0.057997,-0.554200,-0.003914,0.000077,0.003591,-0.002229,0.020700,0.076350,-0.012493,0.547686,0.069081
1403715276722142976,0.878912,2.140861,0.947326,0.061855,-0.828062,-0.057992,-0.554188,-0.004407,-0.000474,0.004179,-0.002229,0.020700,0.076350,-0.012493,0.547686,0.069081
1403715276727143168,0.878890,2.140856,0.947346,0.061874,-0.828039,-0.057965,-0.554223,-0.004568,-0.001353,0.003912,-0.002229,0.020700,0.076350,-0.012493,0.547686,0.069081
1403715276732142848,0.878868,2.140851,0.947364,0.061887,-0.828011,-0.057931,-0.554267,-0.004159,-0.000991,0.003416,-0.002229,0.020700,0.076350,-0.012493,0.547686,0.069081
1403715276737143040,0.878849,2.140848,0.947378,0.061889,-0.828001,-0.057908,-0.554284,-0.003576,-0.000084,0.001860,-0.002229,0.020700,0.076350,-0.012493,0.547686,0.069081
1403715276742142976,0.878831,2.140848,0.947386,0.061907,-0.828000,-0.057889,-0.554286,-0.003512,0.000328,0.001701,-0.002229,0.020700,0.076350,-0.012493,0.547686,0.069081
1403715276747142912,0.878814,2.140850,0.947397,0.061954,-0.827982,-0.057869,-0.554310,-0.003511,0.000229,0.002577,-0.002229,0.020700,0.076350,-0.012493,0.547686,0.069081
1403715276752142848,0.878837,2.140784,0.947399,0.061972,-0.827937,-0.057905,-0.554370,-0.001761,-0.002353,0.001938,-0.002229,0.020700,0.076350,-0.012493,0.547686,0.069082
1403715276757143040,0.878830,2.140773,0.947405,0.061982,-0.827912,-0.057926,-0.554404,-0.001328,-0.002131,0.000128,-0.002229,0.020700,0.076350,-0.012493,0.547686,0.069082
1403715276762142976,0.878824,2.140760,0.947404,0.061987,-0.827912,-0.057944,-0.554402,-0.000910,-0.002848,-0.000502,-0.002229,0.020700,0.076350,-0.012493,0.547686,0.069082
1403715276767142912,0.878818,2.140744,0.947404,0.061995,-0.827913,-0.057930,-0.554401,-0.001557,-0.003701,0.000456,-0.002229,0.020700,0.076350,-0.012493,0.547686,0.069082
1403715276772142848,0.878810,2.140725,0.947405,0.061983,-0.827903,-0.057895,-0.554422,-0.001839,-0.003904,0.000098,-0.002229,0.020700,0.076350,-0.012493,0.547686,0.069082
1403715276777143040,0.878804,2.140709,0.947400,0.061942,-0.827910,-0.057876,-0.554417,-0.000443,-0.002370,-0.001992,-0.002229,0.020700,0.076350,-0.012493,0.547686,0.069082
1403715276782143232,0.878805,2.140702,0.947390,0.061921,-0.827952,-0.057872,-0.554357,0.000994,-0.000390,-0.002013,-0.002229,0.020700,0.076350,-0.012493,0.547686,0.069082
1403715276787142912,0.878810,2.140702,0.947387,0.061944,-0.827980,-0.057860,-0.554315,0.000836,0.000164,0.000563,-0.002229,0.020700,0.076350,-0.012493,0.547686,0.069082
1403715276792143104,0.878813,2.140703,0.947390,0.061947,-0.827983,-0.057846,-0.554312,0.000567,0.000439,0.000742,-0.002229,0.020700,0.076350,-0.012493,0.547686,0.069082
1403715276797143040,0.878818,2.140709,0.947390,0.061929,-0.827998,-0.057849,-0.554290,0.001188,0.001873,-0.000536,-0.002229,0.020700,0.076350,-0.012493,0.547686,0.069082
1403715276802142976,0.878869,2.140656,0.947380,0.061893,-0.828026,-0.057923,-0.554245,0.003843,0.000559,-0.000412,-0.002229,0.020700,0.076350,-0.012493,0.547687,0.069082
1403715276807142912,0.878888,2.140656,0.947384,0.061929,-0.828038,-0.057940,-0.554221,0.003904,-0.000375,0.002057,-0.002229,0.020700,0.076350,-0.012493,0.547687,0.069082
1403715276812143104,0.878906,2.140650,0.947395,0.061963,-0.828017,-0.057927,-0.554249,0.003346,-0.002135,0.002241,-0.002229,0.020700,0.076350,-0.012493,0.547687,0.069082
1403715276817143040,0.878921,2.140639,0.947401,0.061952,-0.828026,-0.057914,-0.554240,0.002544,-0.002270,0.000070,-0.002229,0.020700,0.076350,-0.012493,0.547687,0.069082
1403715276822142976,0.878933,2.140628,0.947404,0.061933,-0.828055,-0.057909,-0.554199,0.002129,-0.002027,0.001043,-0.002229,0.020700,0.076350,-0.012493,0.547687,0.069082
1403715276827142912,0.878943,2.140616,0.947416,0.061926,-0.828056,-0.057900,-0.554199,0.001993,-0.002684,0.003962,-0.002229,0.020700,0.076350,-0.012493,0.547687,0.069082
1403715276832143104,0.878951,2.140605,0.947435,0.061904,-0.828027,-0.057887,-0.554245,0.001238,-0.002021,0.003383,-0.002229,0.020700,0.076350,-0.012493,0.547687,0.069082
1403715276837143040,0.878956,2.140600,0.947446,0.061898,-0.828028,-0.057883,-0.554245,0.000543,0.000378,0.001072,-0.002229,0.020700,0.076350,-0.012493,0.547687,0.069082
1403715276842142976,0.878958,2.140605,0.947456,0.061934,-0.828041,-0.057899,-0.554220,0.000554,0.001543,0.003102,-0.002229,0.020700,0.076350,-0.012493,0.547687,0.069082
1403715276847142912,0.878961,2.140612,0.947474,0.061960,-0.828013,-0.057915,-0.554257,0.000507,0.001288,0.004048,-0.002229,0.020700,0.076350,-0.012493,0.547687,0.069082
1403715276852143104,0.879007,2.140556,0.947481,0.061898,-0.827993,-0.057964,-0.554289,0.002027,-0.001184,0.001349,-0.002229,0.020700,0.076350,-0.012493,0.547688,0.069082
1403715276857143040,0.879017,2.140554,0.947485,0.061897,-0.828017,-0.057939,-0.554256,0.002303,0.000188,0.000391,-0.002229,0.020700,0.076350,-0.012493,0.547688,0.069082
1403715276862142976,0.879029,2.140557,0.947491,0.061929,-0.828023,-0.057916,-0.554246,0.002463,0.001208,0.002076,-0.002229,0.020700,0.076350,-0.012493,0.547688,0.069082
1403715276867142912,0.879041,2.140563,0.947504,0.061920,-0.828005,-0.057916,-0.554273,0.002175,0.001339,0.002777,-0.002229,0.020700,0.076350,-0.012493,0.547688,0.069082
1403715276872143104,0.879052,2.140572,0.947513,0.061878,-0.828005,-0.057921,-0.554278,0.002117,0.001938,0.001052,-0.002229,0.020700,0.076350,-0.012493,0.547688,0.069082
1403715276877142784,0.879062,2.140586,0.947522,0.061887,-0.828010,-0.057903,-0.554271,0.002182,0.003900,0.002658,-0.002229,0.020700,0.076350,-0.012493,0.547688,0.069082
1403715276882142976,0.879071,2.140608,0.947540,0.061911,-0.827959,-0.057894,-0.554346,0.001168,0.004933,0.004291,-0.002229,0.020700,0.076350,-0.012493,0.547688,0.069082
1403715276887142912,0.879074,2.140633,0.947556,0.061886,-0.827903,-0.057910,-0.554430,0.000126,0.004827,0.002078,-0.002229,0.020700,0.076350,-0.012493,0.547688,0.069082
1403715276892143104,0.879075,2.140661,0.947563,0.061904,-0.827908,-0.057897,-0.554422,0.000134,0.006491,0.000971,-0.002229,0.020700,0.076350,-0.012493,0.547688,0.069082
1403715276897142784,0.879074,2.140698,0.947574,0.061967,-0.827883,-0.057886,-0.554455,-0.000488,0.008270,0.003165,-0.002229,0.020700,0.076350,-0.012493,0.547688,0.069082
1403715276902142976,0.879121,2.140686,0.947589,0.061952,-0.827817,-0.057949,-0.554547,0.000762,0.006008,0.002245,-0.002229,0.020700,0.076350,-0.012493,0.547689,0.069083
1403715276907143168,0.879125,2.140716,0.947592,0.061953,-0.827821,-0.057946,-0.554542,0.001103,0.005825,-0.001113,-0.002229,0.020700,0.076350,-0.012493,0.547689,0.069083
1403715276912143104,0.879134,2.140746,0.947586,0.062007,-0.827838,-0.057897,-0.554516,0.002196,0.006355,-0.001045,-0.002229,0.020700,0.076350,-0.012493,0.547689,0.069083
1403715276917143040,0.879145,2.140780,0.947585,0.062054,-0.827819,-0.057856,-0.554542,0.002218,0.007156,0.000623,-0.002229,0.020700,0.076350,-0.012493,0.547689,0.069083
1403715276922142976,0.879155,2.140815,0.947585,0.062016,-0.827816,-0.057861,-0.554551,0.002041,0.006881,-0.000777,-0.002229,0.020700,0.076350,-0.012493,0.547689,0.069083
1403715276927143168,0.879167,2.140848,0.947578,0.061976,-0.827856,-0.057850,-0.554497,0.002692,0.006323,-0.001931,-0.002229,0.020700,0.076350,-0.012493,0.547689,0.069083
1403715276932142848,0.879181,2.140881,0.947575,0.062001,-0.827857,-0.057820,-0.554495,0.002605,0.006925,0.000672,-0.002229,0.020700,0.076350,-0.012493,0.547689,0.069083
1403715276937143040,0.879191,2.140917,0.947579,0.061995,-0.827812,-0.057844,-0.554561,0.001768,0.007507,0.001086,-0.002229,0.020700,0.076350,-0.012493,0.547689,0.069083
1403715276942142976,0.879201,2.140952,0.947584,0.061965,-0.827797,-0.057879,-0.554583,0.002008,0.006482,0.000641,-0.002229,0.020700,0.076350,-0.012493,0.547689,0.069083
1403715276947143168,0.879212,2.140983,0.947594,0.061994,-0.827771,-0.057866,-0.554620,0.002513,0.005794,0.003322,-0.002229,0.020700,0.076350,-0.012493,0.547689,0.069083
1403715276952142848,0.879287,2.140968,0.947618,0.061969,-0.827697,-0.057917,-0.554728,0.004281,0.004497,0.004260,-0.002229,0.020700,0.076350,-0.012493,0.547690,0.069083
1403715276957143040,0.879304,2.140992,0.947638,0.061947,-0.827674,-0.057943,-0.554763,0.002816,0.004875,0.003777,-0.002229,0.020700,0.076350,-0.012493,0.547690,0.069083
1403715276962142976,0.879318,2.141017,0.947661,0.061942,-0.827657,-0.057950,-0.554788,0.002560,0.005144,0.005473,-0.002229,0.020700,0.076350,-0.012493,0.547690,0.069083
1403715276967143168,0.879330,2.141046,0.947688,0.061952,-0.827617,-0.057936,-0.554847,0.002195,0.006466,0.005216,-0.002229,0.020700,0.076350,-0.012493,0.547690,0.069083
1403715276972142848,0.879338,2.141082,0.947708,0.061922,-0.827619,-0.057958,-0.554845,0.001093,0.007894,0.002849,-0.002229,0.020700,0.076350,-0.012493,0.547690,0.069083
1403715276977143040,0.879343,2.141119,0.947724,0.061895,-0.827645,-0.057979,-0.554807,0.000976,0.007051,0.003482,-0.002229,0.020700,0.076350,-0.012493,0.547690,0.069083
1403715276982142976,0.879348,2.141151,0.947742,0.061906,-0.827636,-0.057950,-0.554823,0.001177,0.005569,0.003783,-0.002229,0.020700,0.076350,-0.012493,0.547690,0.069083
1403715276987142912,0.879354,2.141176,0.947757,0.061885,-0.827631,-0.057924,-0.554834,0.001030,0.004478,0.002117,-0.002229,0.020700,0.076350,-0.012493,0.547690,0.069083
1403715276992142848,0.879360,2.141195,0.947771,0.061881,-0.827652,-0.057902,-0.554807,0.001195,0.003298,0.003550,-0.002229,0.020700,0.076350,-0.012493,0.547690,0.069083
1403715276997143040,0.879366,2.141210,0.947793,0.061924,-0.827626,-0.057874,-0.554844,0.001321,0.002513,0.005229,-0.002229,0.020700,0.076350,-0.012493,0.547690,0.069083
1403715277002142976,0.879448,2.141181,0.947817,0.061915,-0.827589,-0.057924,-0.554895,0.004738,0.000230,0.003369,-0.002229,0.020700,0.076350,-0.012493,0.547691,0.069084
1403715277007142912,0.879474,2.141178,0.947833,0.061968,-0.827597,-0.057916,-0.554877,0.005436,-0.001202,0.002801,-0.002229,0.020700,0.076350,-0.012493,0.547691,0.069084
1403715277012142848,0.879502,2.141168,0.947850,0.062040,-0.827582,-0.057885,-0.554896,0.005774,-0.002694,0.004212,-0.002229,0.020700,0.076350,-0.012493,0.547691,0.069084
1403715277017143040,0.879530,2.141155,0.947866,0.062055,-0.827568,-0.057873,-0.554915,0.005634,-0.002827,0.002092,-0.002229,0.020700,0.076350,-0.012493,0.547691,0.069084
1403715277022142976,0.879559,2.141141,0.947872,0.062039,-0.827618,-0.057879,-0.554842,0.005899,-0.002821,0.000246,-0.002229,0.020700,0.076350,-0.012493,0.547691,0.069084
1403715277027142912,0.879589,2.141126,0.947879,0.062044,-0.827655,-0.057868,-0.554787,0.006132,-0.003144,0.002442,-0.002229,0.020700,0.076350,-0.012493,0.547691,0.069084
1403715277032143104,0.879620,2.141111,0.947890,0.062006,-0.827654,-0.057873,-0.554793,0.006296,-0.002696,0.002151,-0.002229,0.020700,0.076350,-0.012493,0.547691,0.069084
1403715277037143040,0.879651,2.141101,0.947895,0.061917,-0.827709,-0.057926,-0.554715,0.006177,-0.001291,-0.000368,-0.002229,0.020700,0.076350,-0.012493,0.547691,0.069084
1403715277042143232,0.879681,2.141098,0.947896,0.061900,-0.827767,-0.057966,-0.554627,0.005774,0.000239,0.000848,-0.002229,0.020700,0.076350,-0.012493,0.547691,0.069084
1403715277047142912,0.879709,2.141100,0.947900,0.061929,-0.827761,-0.057994,-0.554630,0.005297,0.000583,0.000808,-0.002229,0.020700,0.076350,-0.012493,0.547691,0.069084
1403715277052143104,0.879818,2.141070,0.947904,0.061890,-0.827783,-0.058056,-0.554594,0.008340,-0.001605,-0.001491,-0.002229,0.020700,0.076350,-0.012493,0.547692,0.069084
1403715277057143040,0.879859,2.141060,0.947903,0.061922,-0.827804,-0.058005,-0.554565,0.008117,-0.002271,0.001112,-0.002229,0.020700,0.076350,-0.012493,0.547692,0.069084
1403715277062142976,0.879897,2.141050,0.947916,0.061979,-0.827747,-0.057925,-0.554651,0.007287,-0.001885,0.004240,-0.002229,0.020700,0.076350,-0.012493,0.547692,0.069084
1403715277067142912,0.879931,2.141040,0.947932,0.061995,-0.827715,-0.057871,-0.554703,0.006421,-0.001800,0.002023,-0.002229,0.020700,0.076350,-0.012493,0.547692,0.069084
1403715277072143104,0.879963,2.141031,0.947942,0.062023,-0.827716,-0.057818,-0.554703,0.006011,-0.002121,0.001927,-0.002229,0.020700,0.076350,-0.012493,0.547692,0.069084
1403715277077143040,0.879990,2.141024,0.947953,0.062075,-0.827678,-0.057763,-0.554761,0.005080,-0.000592,0.002541,-0.002229,0.020700,0.076350,-0.012493,0.547692,0.069084
1403715277082142976,0.880013,2.141025,0.947958,0.062086,-0.827668,-0.057784,-0.554772,0.003924,0.000954,-0.000465,-0.002229,0.020700,0.076350,-0.012493,0.547692,0.069084
1403715277087142912,0.880031,2.141028,0.947955,0.062122,-0.827706,-0.057823,-0.554708,0.003557,0.000558,-0.000799,-0.002229,0.020700,0.076350,-0.012493,0.547692,0.069084
1403715277092143104,0.880048,2.141029,0.947952,0.062164,-0.827695,-0.057836,-0.554717,0.002961,-0.000302,-0.000385,-0.002229,0.020700,0.076350,-0.012493,0.547692,0.069084
1403715277097143040,0.880062,2.141026,0.947945,0.062109,-0.827690,-0.057877,-0.554727,0.002849,-0.000853,-0.002562,-0.002229,0.020700,0.076350,-0.012493,0.547692,0.069084
1403715277102142976,0.880173,2.140994,0.947938,0.062028,-0.827711,-0.057940,-0.554698,0.008151,-0.002293,-0.002151,-0.002229,0.020700,0.076350,-0.012493,0.547692,0.069084
1403715277107142912,0.880214,2.140984,0.947934,0.062012,-0.827692,-0.057936,-0.554729,0.008310,-0.001595,0.000779,-0.002229,0.020700,0.076350,-0.012493,0.547692,0.069084
1403715277112143104,0.880254,2.140979,0.947940,0.061949,-0.827652,-0.057978,-0.554790,0.007699,-0.000312,0.001465,-0.002229,0.020700,0.076350,-0.012493,0.547692,0.069084
1403715277117143040,0.880295,2.140977,0.947947,0.061918,-0.827648,-0.058010,-0.554798,0.008603,-0.000371,0.001218,-0.002229,0.020700,0.076350,-0.012493,0.547692,0.069084
1403715277122142976,0.880338,2.140974,0.947955,0.061940,-0.827608,-0.057987,-0.554856,0.008800,-0.000922,0.002089,-0.002229,0.020700,0.076350,-0.012493,0.547692,0.069084
1403715277127142912,0.880379,2.140972,0.947963,0.061925,-0.827570,-0.057975,-0.554916,0.007662,0.000163,0.000959,-0.002229,0.020700,0.076350,-0.012493,0.547692,0.069084
1403715277132143104,0.880417,2.140975,0.947966,0.061898,-0.827590,-0.057981,-0.554888,0.007544,0.001025,0.000412,-0.002229,0.020700,0.076350,-0.012493,0.547692,0.069084
1403715277137142784,0.880455,2.140982,0.947972,0.061936,-0.827582,-0.057959,-0.554898,0.007458,0.001639,0.002111,-0.002229,0.020700,0.076350,-0.012493,0.547692,0.069084
1403715277142142976,0.880489,2.140994,0.947980,0.061965,-0.827556,-0.057960,-0.554934,0.006168,0.003174,0.000984,-0.002229,0.020700,0.076350,-0.012493,0.547692,0.069084
1403715277147142912,0.880519,2.141011,0.947983,0.061960,-0.827586,-0.057994,-0.554886,0.005872,0.003580,0.000081,-0.002229,0.020700,0.076350,-0.012493,0.547692,0.069084
1403715277152143104,0.880645,2.141000,0.947988,0.061955,-0.827609,-0.058050,-0.554847,0.009701,0.001848,0.001459,-0.002229,0.020700,0.076350,-0.012493,0.547693,0.069085
1403715277157143040,0.880687,2.141010,0.947996,0.061960,-0.827636,-0.058064,-0.554804,0.007195,0.002092,0.001731,-0.002229,0.020700,0.076350,-0.012493,0.547693,0.069085
1403715277162142976,0.880718,2.141017,0.948009,0.061937,-0.827669,-0.058074,-0.554757,0.005436,0.000811,0.003446,-0.002229,0.020700,0.076350,-0.012493,0.547693,0.069085
1403715277167143168,0.880744,2.141018,0.948029,0.061933,-0.827663,-0.058032,-0.554771,0.004731,-0.000501,0.004600,-0.002229,0.020700,0.076350,-0.012493,0.547693,0.069085
1403715277172143104,0.880761,2.141019,0.948051,0.061903,-0.827651,-0.058012,-0.554794,0.002141,0.001009,0.003966,-0.002229,0.020700,0.076350,-0.012493,0.547693,0.069085
1403715277177143040,0.880765,2.141026,0.948072,0.061890,-0.827670,-0.058029,-0.554766,-0.000399,0.001668,0.004706,-0.002229,0.020700,0.076350,-0.012493,0.547693,0.069085
1403715277182142976,0.880760,2.141033,0.948095,0.061951,-0.827660,-0.058009,-0.554776,-0.001736,0.001276,0.004523,-0.002229,0.020700,0.076350,-0.012493,0.547693,0.069085
1403715277187143168,0.880745,2.141039,0.948111,0.061991,-0.827656,-0.057995,-0.554779,-0.004124,0.000990,0.001742,-0.002229,0.020700,0.076350,-0.012493,0.547693,0.069085
1403715277192142848,0.880718,2.141039,0.948119,0.062020,-0.827703,-0.057982,-0.554707,-0.006669,-0.001206,0.001466,-0.002229,0.020700,0.076350,-0.012493,0.547693,0.069085
1403715277197143040,0.880682,2.141030,0.948129,0.062069,-0.827703,-0.057911,-0.554708,-0.007789,-0.002055,0.002404,-0.002229,0.020700,0.076350,-0.012493,0.547693,0.069085
1403715277202142976,0.880737,2.140996,0.948140,0.062043,-0.827697,-0.057901,-0.554722,-0.006134,-0.002182,0.001163,-0.002229,0.020700,0.076350,-0.012493,0.547694,0.069085
1403715277207143168,0.880699,2.140985,0.948148,0.062072,-0.827727,-0.057892,-0.554674,-0.008927,-0.002145,0.002405,-0.002229,0.020700,0.076350,-0.012493,0.547694,0.069085
1403715277212142848,0.880653,2.140976,0.948161,0.062125,-0.827706,-0.057889,-0.554700,-0.009585,-0.001320,0.002598,-0.002229,0.020700,0.076350,-0.012493,0.547694,0.069085
1403715277217143040,0.880604,2.140971,0.948169,0.062128,-0.827720,-0.057914,-0.554676,-0.009900,-0.000743,0.000473,-0.002229,0.020700,0.076350,-0.012493,0.547694,0.069085
1403715277222142976,0.880556,2.140963,0.948176,0.062151,-0.827751,-0.057939,-0.554625,-0.009530,-0.002449,0.002396,-0.002229,0.020700,0.076350,-0.012493,0.547694,0.069085
1403715277227143168,0.880510,2.140948,0.948186,0.062141,-0.827728,-0.057940,-0.554660,-0.008869,-0.003669,0.001604,-0.002229,0.020700,0.076350,-0.012493,0.547694,0.069085
1403715277232142848,0.880464,2.140930,0.948183,0.062040,-0.827757,-0.057964,-0.554626,-0.009431,-0.003461,-0.002593,-0.002229,0.020700,0.076350,-0.012493,0.547694,0.069085
1403715277237143040,0.880417,2.140911,0.948176,0.061980,-0.827821,-0.057961,-0.554536,-0.009443,-0.004049,-0.000365,-0.002229,0.020700,0.076350,-0.012493,0.547694,0.069085
1403715277242142976,0.880371,2.140891,0.948177,0.061917,-0.827818,-0.057944,-0.554550,-0.008942,-0.003968,0.000840,-0.002229,0.020700,0.076350,-0.012493,0.547694,0.069085
1403715277247142912,0.880326,2.140877,0.948176,0.061813,-0.827843,-0.057960,-0.554523,-0.009203,-0.001870,-0.001235,-0.002229,0.020700,0.076350,-0.012493,0.547694,0.069085
1403715277252142848,0.880383,2.140844,0.948183,0.061783,-0.827860,-0.057991,-0.554497,-0.003952,-0.001327,0.002858,-0.002229,0.020700,0.076350,-0.012493,0.547695,0.069086
1403715277257143040,0.880365,2.140840,0.948196,0.061833,-0.827797,-0.057953,-0.554590,-0.003258,-0.000015,0.002359,-0.002229,0.020700,0.076350,-0.012493,0.547695,0.069086
1403715277262142976,0.880347,2.140842,0.948199,0.061848,-0.827772,-0.057957,-0.554626,-0.004048,0.000595,-0.000983,-0.002229,0.020700,0.076350,-0.012493,0.547695,0.069086
1403715277267142912,0.880324,2.140842,0.948202,0.061924,-0.827748,-0.057950,-0.554653,-0.005248,-0.000378,0.002070,-0.002229,0.020700,0.076350,-0.012493,0.547695,0.069086
1403715277272142848,0.880292,2.140840,0.948206,0.061976,-0.827699,-0.057949,-0.554721,-0.007574,-0.000649,-0.000313,-0.002229,0.020700,0.076350,-0.012493,0.547695,0.069086
1403715277277143040,0.880248,2.140836,0.948195,0.061965,-0.827748,-0.057971,-0.554647,-0.009821,-0.001050,-0.004402,-0.002229,0.020700,0.076350,-0.012493,0.547695,0.069086
1403715277282143232,0.880198,2.140827,0.948177,0.061990,-0.827776,-0.057938,-0.554605,-0.010504,-0.002231,-0.002526,-0.002229,0.020700,0.076350,-0.012493,0.547695,0.069086
1403715277287142912,0.880144,2.140817,0.948161,0.061977,-0.827785,-0.057892,-0.554598,-0.010893,-0.002047,-0.004164,-0.002229,0.020700,0.076350,-0.012493,0.547695,0.069086
1403715277292143104,0.880088,2.140807,0.948138,0.061929,-0.827872,-0.057879,-0.554475,-0.011469,-0.001687,-0.004734,-0.002229,0.020700,0.076350,-0.012493,0.547695,0.069086
1403715277297143040,0.880031,2.140798,0.948125,0.061935,-0.827894,-0.057834,-0.554447,-0.011340,-0.002163,-0.000529,-0.002229,0.020700,0.076350,-0.012493,0.547695,0.069086
1403715277302142976,0.880057,2.140756,0.948114,0.061890,-0.827861,-0.057842,-0.554500,-0.008229,-0.002961,-0.001429,-0.002229,0.020700,0.076350,-0.012493,0.547696,0.069086
1403715277307142912,0.880014,2.140745,0.948108,0.061866,-0.827904,-0.057833,-0.554440,-0.009258,-0.001484,-0.001159,-0.002229,0.020700,0.076350,-0.012493,0.547696,0.069086
1403715277312143104,0.879965,2.140741,0.948107,0.061902,-0.827884,-0.057813,-0.554467,-0.010184,-0.000266,0.000867,-0.002229,0.020700,0.076350,-0.012493,0.547696,0.069086
1403715277317143040,0.879911,2.140743,0.948104,0.061951,-0.827847,-0.057814,-0.554517,-0.011357,0.001239,-0.001897,-0.002229,0.020700,0.076350,-0.012493,0.547696,0.069086
1403715277322142976,0.879854,2.140751,0.948098,0.061996,-0.827860,-0.057861,-0.554488,-0.011368,0.001799,-0.000538,-0.002229,0.020700,0.076350,-0.012493,0.547696,0.069086
1403715277327142912,0.879799,2.140758,0.948104,0.062043,-0.827813,-0.057901,-0.554549,-0.010896,0.001096,0.002845,-0.002229,0.020700,0.076350,-0.012493,0.547696,0.069086
1403715277332143104,0.879742,2.140764,0.948112,0.062022,-0.827805,-0.057952,-0.554558,-0.011767,0.001026,0.000244,-0.002229,0.020700,0.076350,-0.012493,0.547696,0.069086
1403715277337143040,0.879682,2.140765,0.948115,0.061964,-0.827856,-0.058006,-0.554482,-0.012476,-0.000555,0.001089,-0.002229,0.020700,0.076350,-0.012493,0.547696,0.069086
1403715277342142976,0.879618,2.140757,0.948126,0.061899,-0.827836,-0.058014,-0.554519,-0.012978,-0.002621,0.003189,-0.002229,0.020700,0.076350,-0.012493,0.547696,0.069086
1403715277347142912,0.879552,2.140744,0.948133,0.061784,-0.827857,-0.058012,-0.554500,-0.013451,-0.002304,-0.000247,-0.002229,0.020700,0.076350,-0.012493,0.547696,0.069086
1403715277352143104,0.879562,2.140704,0.948140,0.061659,-0.827906,-0.058068,-0.554435,-0.010128,-0.003044,0.001794,-0.002229,0.020700,0.076350,-0.012493,0.547697,0.069087
1403715277357143040,0.879512,2.140693,0.948154,0.061644,-0.827884,-0.058047,-0.554472,-0.010017,-0.001450,0.003715,-0.002229,0.020700,0.076350,-0.012493,0.547697,0.069087
1403715277362142976,0.879460,2.140691,0.948168,0.061664,-0.827906,-0.058023,-0.554439,-0.010536,0.000734,0.002055,-0.002229,0.020700,0.076350,-0.012493,0.547697,0.069087
1403715277367142912,0.879407,2.140696,0.948185,0.061746,-0.827905,-0.057998,-0.554434,-0.010770,0.001300,0.004744,-0.002229,0.020700,0.076350,-0.012493,0.547697,0.069087
1403715277372143104,0.879351,2.140706,0.948208,0.061857,-0.827838,-0.057974,-0.554524,-0.011469,0.002576,0.004532,-0.002229,0.020700,0.076350,-0.012493,0.547697,0.069087
1403715277377142784,0.879292,2.140720,0.948226,0.061982,-0.827847,-0.057961,-0.554499,-0.012064,0.003176,0.002661,-0.002229,0.020700,0.076350,-0.012493,0.547697,0.069087
1403715277382142976,0.879232,2.140731,0.948243,0.062131,-0.827808,-0.057919,-0.554544,-0.012010,0.001366,0.003950,-0.002229,0.020700,0.076350,-0.012493,0.547697,0.069087
1403715277387142912,0.879170,2.140734,0.948254,0.062197,-0.827746,-0.057882,-0.554633,-0.012910,-0.000344,0.000457,-0.002229,0.020700,0.076350,-0.012493,0.547697,0.069087
1403715277392143104,0.879106,2.140727,0.948251,0.062184,-0.827793,-0.057865,-0.554567,-0.012837,-0.002574,-0.001565,-0.002229,0.020700,0.076350,-0.012493,0.547697,0.069087
1403715277397142784,0.879042,2.140710,0.948249,0.062148,-0.827791,-0.057824,-0.554578,-0.012422,-0.004176,0.000871,-0.002229,0.020700,0.076350,-0.012493,0.547697,0.069087
1403715277402142976,0.879040,2.140658,0.948234,0.061995,-0.827768,-0.057874,-0.554624,-0.010968,-0.004558,-0.003322,-0.002229,0.020700,0.076350,-0.012493,0.547698,0.069087
1403715277407143168,0.878986,2.140636,0.948214,0.061863,-0.827835,-0.057925,-0.554533,-0.010766,-0.004076,-0.004657,-0.002229,0.020700,0.076350,-0.012493,0.547698,0.069087
1403715277412143104,0.878934,2.140618,0.948197,0.061791,-0.827817,-0.057949,-0.554565,-0.010211,-0.003235,-0.002282,-0.002229,0.020700,0.076350,-0.012493,0.547698,0.069087
1403715277417143040,0.878883,2.140606,0.948183,0.061737,-0.827796,-0.057984,-0.554599,-0.010147,-0.001545,-0.003420,-0.002229,0.020700,0.076350,-0.012493,0.547698,0.069087
1403715277422142976,0.878835,2.140599,0.948174,0.061755,-0.827815,-0.058010,-0.554566,-0.008844,-0.001312,0.000012,-0.002229,0.020700,0.076350,-0.012493,0.547698,0.069087
1403715277427143168,0.878789,2.140593,0.948176,0.061822,-0.827744,-0.057995,-0.554666,-0.009525,-0.000935,0.000673,-0.002229,0.020700,0.076350,-0.012493,0.547698,0.069087
1403715277432142848,0.878737,2.140588,0.948171,0.061890,-0.827733,-0.057975,-0.554677,-0.011580,-0.001340,-0.002743,-0.002229,0.020700,0.076350,-0.012493,0.547698,0.069087
1403715277437143040,0.878679,2.140578,0.948165,0.061978,-0.827713,-0.057930,-0.554702,-0.011508,-0.002490,0.000610,-0.002229,0.020700,0.076350,-0.012493,0.547698,0.069087
1403715277442142976,0.878623,2.140568,0.948163,0.062029,-0.827626,-0.057885,-0.554831,-0.011007,-0.001433,-0.001535,-0.002229,0.020700,0.076350,-0.012493,0.547698,0.069087
1403715277447143168,0.878571,2.140562,0.948146,0.062053,-0.827673,-0.057860,-0.554760,-0.009560,-0.000865,-0.005289,-0.002229,0.020700,0.076350,-0.012493,0.547698,0.069087
1403715277452142848,0.878583,2.140519,0.948130,0.062036,-0.827685,-0.057867,-0.554743,-0.005191,-0.003233,-0.002835,-0.002229,0.020700,0.076350,-0.012493,0.547699,0.069088
1403715277457143040,0.878559,2.140506,0.948112,0.061982,-0.827674,-0.057850,-0.554768,-0.004347,-0.001760,-0.004183,-0.002229,0.020700,0.076350,-0.012493,0.547699,0.069088
1403715277462142976,0.878541,2.140500,0.948093,0.061933,-0.827745,-0.057870,-0.554666,-0.002960,-0.000692,-0.003332,-0.002229,0.020700,0.076350,-0.012493,0.547699,0.069088
1403715277467143168,0.878532,2.140501,0.948085,0.061932,-0.827746,-0.057869,-0.554664,-0.000453,0.001060,0.000245,-0.002229,0.020700,0.076350,-0.012493,0.547699,0.069088
1403715277472142848,0.878534,2.140513,0.948085,0.061935,-0.827748,-0.057885,-0.554659,0.001136,0.003632,-0.000419,-0.002229,0.020700,0.076350,-0.012493,0.547699,0.069088
1403715277477143040,0.878545,2.140530,0.948088,0.061963,-0.827786,-0.057927,-0.554595,0.003423,0.003257,0.001457,-0.002229,0.020700,0.076350,-0.012493,0.547699,0.069088
1403715277482142976,0.878568,2.140544,0.948098,0.061972,-0.827753,-0.057953,-0.554641,0.005485,0.002392,0.002733,-0.002229,0.020700,0.076350,-0.012493,0.547699,0.069088
1403715277487142912,0.878596,2.140553,0.948111,0.061935,-0.827772,-0.057978,-0.554613,0.005889,0.001416,0.002504,-0.002229,0.020700,0.076350,-0.012493,0.547699,0.069088
1403715277492142848,0.878627,2.140559,0.948131,0.061898,-0.827800,-0.057974,-0.554576,0.006673,0.000713,0.005469,-0.002229,0.020700,0.076350,-0.012493,0.547699,0.069088
1403715277497143040,0.878660,2.140565,0.948155,0.061869,-0.827784,-0.057940,-0.554606,0.006477,0.001655,0.004083,-0.002229,0.020700,0.076350,-0.012493,0.547699,0.069088
1403715277502142976,0.878730,2.140534,0.948160,0.061820,-0.827810,-0.057973,-0.554570,0.006910,0.000232,0.003156,-0.002229,0.020700,0.076350,-0.012493,0.547700,0.069089
1403715277507142912,0.878763,2.140536,0.948189,0.061836,-0.827826,-0.057934,-0.554549,0.006166,0.000634,0.008106,-0.002229,0.020700,0.076350,-0.012493,0.547700,0.069089
1403715277512142848,0.878790,2.140542,0.948229,0.061875,-0.827832,-0.057881,-0.554540,0.004511,0.001738,0.008021,-0.002229,0.020700,0.076350,-0.012493,0.547700,0.069089
1403715277517143040,0.878810,2.140550,0.948259,0.061911,-0.827848,-0.057862,-0.554515,0.003494,0.001248,0.004057,-0.002229,0.020700,0.076350,-0.012493,0.547700,0.069089
1403715277522142976,0.878827,2.140557,0.948276,0.061922,-0.827837,-0.057880,-0.554529,0.003628,0.001595,0.002646,-0.002229,0.020700,0.076350,-0.012493,0.547700,0.069089
1403715277527142912,0.878846,2.140566,0.948293,0.061946,-0.827872,-0.057916,-0.554470,0.003608,0.002117,0.004076,-0.002229,0.020700,0.076350,-0.012493,0.547700,0.069089
1403715277532143104,0.878863,2.140574,0.948326,0.061981,-0.827925,-0.057941,-0.554383,0.003201,0.001141,0.009246,-0.002229,0.020700,0.076350,-0.012493,0.547700,0.069089
1403715277537143040,0.878877,2.140577,0.948375,0.061983,-0.827910,-0.057958,-0.554404,0.002510,0.000095,0.010228,-0.002229,0.020700,0.076350,-0.012493,0.547700,0.069089
1403715277542143232,0.878891,2.140572,0.948417,0.061950,-0.827871,-0.057987,-0.554463,0.002950,-0.002113,0.006563,-0.002229,0.020700,0.076350,-0.012493,0.547700,0.069089
1403715277547142912,0.878907,2.140561,0.948455,0.061861,-0.827816,-0.058008,-0.554553,0.003521,-0.002309,0.008941,-0.002229,0.020700,0.076350,-0.012493,0.547700,0.069089
1403715277552143104,0.878959,2.140511,0.948495,0.061748,-0.827756,-0.058067,-0.554648,0.004085,-0.001982,0.010659,-0.002229,0.020700,0.076350,-0.012493,0.547701,0.069089
1403715277557143040,0.878977,2.140503,0.948540,0.061738,-0.827730,-0.058064,-0.554689,0.003062,-0.001080,0.007709,-0.002229,0.020700,0.076350,-0.012493,0.547701,0.069089
1403715277562142976,0.878992,2.140501,0.948570,0.061736,-0.827657,-0.058078,-0.554797,0.002868,0.000271,0.004272,-0.002229,0.020700,0.076350,-0.012493,0.547701,0.069089
1403715277567142912,0.879005,2.140506,0.948586,0.061805,-0.827598,-0.058072,-0.554878,0.002385,0.001465,0.001991,-0.002229,0.020700,0.076350,-0.012493,0.547701,0.069089
1403715277572143104,0.879015,2.140513,0.948596,0.061914,-0.827586,-0.058016,-0.554889,0.001619,0.001586,0.001929,-0.002229,0.020700,0.076350,-0.012493,0.547701,0.069089
1403715277577143040,0.879022,2.140521,0.948603,0.061986,-0.827580,-0.057967,-0.554895,0.001281,0.001376,0.000753,-0.002229,0.020700,0.076350,-0.012493,0.547701,0.069089
1403715277582142976,0.879029,2.140526,0.948598,0.062078,-0.827600,-0.057920,-0.554861,0.001388,0.000689,-0.002488,-0.002229,0.020700,0.076350,-0.012493,0.547701,0.069089
1403715277587142912,0.879036,2.140530,0.948579,0.062136,-0.827625,-0.057877,-0.554820,0.001696,0.001090,-0.005311,-0.002229,0.020700,0.076350,-0.012493,0.547701,0.069089
1403715277592143104,0.879046,2.140536,0.948551,0.062154,-0.827658,-0.057853,-0.554772,0.002057,0.001032,-0.005888,-0.002229,0.020700,0.076350,-0.012493,0.547701,0.069089
1403715277597143040,0.879060,2.140541,0.948526,0.062139,-0.827710,-0.057847,-0.554696,0.003490,0.001226,-0.004105,-0.002229,0.020700,0.076350,-0.012493,0.547701,0.069089
1403715277602142976,0.879115,2.140501,0.948498,0.062026,-0.827753,-0.057957,-0.554634,0.006088,0.000438,-0.002313,-0.002229,0.020700,0.076350,-0.012493,0.547702,0.069090
1403715277607142912,0.879149,2.140502,0.948486,0.061952,-0.827767,-0.058029,-0.554614,0.007240,0.000057,-0.002424,-0.002229,0.020700,0.076350,-0.012493,0.547702,0.069090
1403715277612143104,0.879188,2.140503,0.948472,0.061884,-0.827748,-0.058065,-0.554646,0.008432,-0.000005,-0.002892,-0.002229,0.020700,0.076350,-0.012493,0.547702,0.069090
1403715277617143040,0.879229,2.140502,0.948466,0.061819,-0.827738,-0.058080,-0.554667,0.007886,-0.000123,0.000441,-0.002229,0.020700,0.076350,-0.012493,0.547702,0.069090
1403715277622142976,0.879266,2.140502,0.948470,0.061780,-0.827729,-0.058071,-0.554686,0.007160,0.000211,0.001052,-0.002229,0.020700,0.076350,-0.012493,0.547702,0.069090
1403715277627142912,0.879301,2.140510,0.948471,0.061773,-0.827719,-0.058058,-0.554702,0.006888,0.002813,-0.000843,-0.002229,0.020700,0.076350,-0.012493,0.547702,0.069090
1403715277632143104,0.879334,2.140528,0.948466,0.061820,-0.827703,-0.058045,-0.554723,0.006267,0.004255,-0.001105,-0.002229,0.020700,0.076350,-0.012493,0.547702,0.069090
1403715277637142784,0.879363,2.140549,0.948455,0.061893,-0.827717,-0.058012,-0.554696,0.005389,0.004300,-0.002986,-0.002229,0.020700,0.076350,-0.012493,0.547702,0.069090
1403715277642142976,0.879386,2.140568,0.948447,0.061967,-0.827760,-0.057978,-0.554628,0.003705,0.003451,-0.000446,-0.002229,0.020700,0.076350,-0.012493,0.547702,0.069090
1403715277647142912,0.879401,2.140584,0.948454,0.062040,-0.827751,-0.057930,-0.554638,0.002399,0.002882,0.003234,-0.002229,0.020700,0.076350,-0.012493,0.547702,0.069090
1403715277652143104,0.879441,2.140550,0.948453,0.062072,-0.827741,-0.057925,-0.554650,0.002961,0.001074,0.002036,-0.002229,0.020700,0.076350,-0.012493,0.547703,0.069090
1403715277657143040,0.879454,2.140552,0.948469,0.062091,-0.827723,-0.057904,-0.554677,0.002451,-0.000464,0.004512,-0.002229,0.020700,0.076350,-0.012493,0.547703,0.069090
1403715277662142976,0.879467,2.140547,0.948491,0.062008,-0.827683,-0.057939,-0.554742,0.002555,-0.001413,0.004136,-0.002229,0.020700,0.076350,-0.012493,0.547703,0.069090
1403715277667143168,0.879477,2.140542,0.948513,0.061915,-0.827715,-0.057994,-0.554699,0.001472,-0.000728,0.004924,-0.002229,0.020700,0.076350,-0.012493,0.547703,0.069090
1403715277672143104,0.879481,2.140539,0.948548,0.061842,-0.827699,-0.058036,-0.554726,-0.000025,-0.000286,0.008825,-0.002229,0.020700,0.076350,-0.012493,0.547703,0.069090
1403715277677143040,0.879479,2.140540,0.948583,0.061762,-0.827660,-0.058098,-0.554787,-0.000498,0.000831,0.005265,-0.002229,0.020700,0.076350,-0.012493,0.547703,0.069090
1403715277682142976,0.879479,2.140543,0.948607,0.061755,-0.827664,-0.058143,-0.554777,0.000569,0.000218,0.004505,-0.002229,0.020700,0.076350,-0.012493,0.547703,0.069090
1403715277687143168,0.879486,2.140542,0.948631,0.061784,-0.827631,-0.058130,-0.554825,0.002066,-0.000519,0.005117,-0.002229,0.020700,0.076350,-0.012493,0.547703,0.069090
1403715277692142848,0.879494,2.140541,0.948657,0.061836,-0.827660,-0.058077,-0.554781,0.001238,-0.000076,0.005186,-0.002229,0.020700,0.076350,-0.012493,0.547703,0.069090
1403715277697143040,0.879497,2.140541,0.948695,0.061888,-0.827692,-0.058027,-0.554733,-0.000196,-0.000040,0.009777,-0.002229,0.020700,0.076350,-0.012493,0.547703,0.069090
1403715277702142976,0.879526,2.140496,0.948732,0.061864,-0.827670,-0.058083,-0.554763,0.000369,-0.000516,0.008174,-0.002229,0.020700,0.076350,-0.012493,0.547704,0.069091
1403715277707143168,0.879527,2.140496,0.948769,0.061936,-0.827694,-0.058070,-0.554720,0.000081,0.000501,0.006750,-0.002229,0.020700,0.076350,-0.012493,0.547704,0.069091
1403715277712142848,0.879528,2.140499,0.948805,0.061978,-0.827684,-0.058053,-0.554732,0.000420,0.000639,0.007591,-0.002229,0.020700,0.076350,-0.012493,0.547704,0.069091
1403715277717143040,0.879530,2.140502,0.948831,0.061975,-0.827732,-0.058066,-0.554660,0.000412,0.000477,0.002845,-0.002229,0.020700,0.076350,-0.012493,0.547704,0.069091
1403715277722142976,0.879532,2.140502,0.948844,0.061931,-0.827825,-0.058094,-0.554523,0.000202,-0.000275,0.002354,-0.002229,0.020700,0.076350,-0.012493,0.547704,0.069091
1403715277727143168,0.879533,2.140503,0.948860,0.061827,-0.827865,-0.058123,-0.554472,0.000235,0.000611,0.004126,-0.002229,0.020700,0.076350,-0.012493,0.547704,0.069091
1403715277732142848,0.879532,2.140508,0.948881,0.061769,-0.827897,-0.058135,-0.554429,-0.000748,0.001588,0.004171,-0.002229,0.020700,0.076350,-0.012493,0.547704,0.069091
1403715277737143040,0.879527,2.140520,0.948907,0.061770,-0.827861,-0.058119,-0.554485,-0.001241,0.003170,0.006317,-0.002229,0.020700,0.076350,-0.012493,0.547704,0.069091
1403715277742142976,0.879519,2.140540,0.948941,0.061832,-0.827798,-0.058090,-0.554574,-0.001715,0.004837,0.007322,-0.002229,0.020700,0.076350,-0.012493,0.547704,0.069091
1403715277747142912,0.879508,2.140565,0.948982,0.061922,-0.827756,-0.058073,-0.554629,-0.002754,0.004926,0.008998,-0.002229,0.020700,0.076350,-0.012493,0.547704,0.069091
1403715277752142848,0.879528,2.140539,0.949015,0.061973,-0.827684,-0.058112,-0.554727,-0.001046,0.002716,0.005972,-0.002229,0.020700,0.076350,-0.012493,0.547705,0.069091
1403715277757143040,0.879522,2.140550,0.949030,0.062039,-0.827644,-0.058074,-0.554782,-0.001381,0.001868,-0.000125,-0.002229,0.020700,0.076350,-0.012493,0.547705,0.069091
1403715277762142976,0.879514,2.140561,0.949023,0.062057,-0.827625,-0.058033,-0.554813,-0.001959,0.002464,-0.002414,-0.002229,0.020700,0.076350,-0.012493,0.547705,0.069091
1403715277767142912,0.879503,2.140574,0.949017,0.062050,-0.827637,-0.058011,-0.554798,-0.002251,0.002574,-0.000104,-0.002229,0.020700,0.076350,-0.012493,0.547705,0.069091
1403715277772142848,0.879490,2.140586,0.949022,0.061991,-0.827659,-0.058032,-0.554770,-0.003231,0.002456,0.002009,-0.002229,0.020700,0.076350,-0.012493,0.547705,0.069091
1403715277777143040,0.879474,2.140599,0.949025,0.061946,-0.827659,-0.058057,-0.554773,-0.003150,0.002827,-0.000586,-0.002229,0.020700,0.076350,-0.012493,0.547705,0.069091
1403715277782143232,0.879459,2.140608,0.949018,0.061915,-0.827637,-0.058082,-0.554806,-0.002734,0.000685,-0.002559,-0.002229,0.020700,0.076350,-0.012493,0.547705,0.069091
1403715277787142912,0.879446,2.140607,0.949004,0.061806,-0.827619,-0.058117,-0.554842,-0.002483,-0.000959,-0.002914,-0.002229,0.020700,0.076350,-0.012493,0.547705,0.069091
1403715277792143104,0.879433,2.140600,0.948992,0.061698,-0.827648,-0.058144,-0.554808,-0.002520,-0.001906,-0.001869,-0.002229,0.020700,0.076350,-0.012493,0.547705,0.069091
1403715277797143040,0.879419,2.140593,0.948990,0.061607,-0.827649,-0.058185,-0.554812,-0.003088,-0.000899,0.001298,-0.002229,0.020700,0.076350,-0.012493,0.547705,0.069091
1403715277802142976,0.879437,2.140549,0.948985,0.061561,-0.827635,-0.058292,-0.554827,-0.001413,0.000666,-0.001214,-0.002229,0.020700,0.076350,-0.012493,0.547706,0.069092
1403715277807142912,0.879430,2.140554,0.948973,0.061645,-0.827636,-0.058311,-0.554814,-0.001292,0.001186,-0.003699,-0.002229,0.020700,0.076350,-0.012493,0.547706,0.069092
